OOIBase32 Version 1.0.0.8 Data File
++++++++++++++++++++++++++++++++++++
Date: Monday, January 21, 1980, 02:22:26
User: Valued Ocean Optics Customer
Spectrometer Serial Number: Unknown
Spectrometer Channel: Master
Integration Time (msec): 7
Spectra Averaged: 20
Boxcar Smoothing: 0
Correct for Electrical Dark: Disabled
Time Normalized: Disabled
Dual-beam Reference: Disabled
Reference Channel: Master
>>>>>Begin Spectral Data<<<<<
179.00	0.0000
179.38	0.0000
179.75	71.5500
180.13	72.5000
180.51	73.1500
180.88	73.4500
181.26	74.7000
181.64	73.6000
182.02	73.9500
182.39	74.0000
182.77	72.4000
183.15	72.7500
183.52	72.2500
183.90	74.4500
184.28	72.5000
184.65	73.5000
185.03	72.2000
185.41	73.3000
185.78	73.5500
186.16	73.4500
186.53	73.5500
186.91	72.9000
187.29	72.7000
187.66	73.2500
188.04	73.6500
188.42	76.2500
188.79	76.2500
189.17	76.3500
189.55	75.6000
189.92	75.7500
190.30	74.9000
190.67	75.1500
191.05	76.3000
191.43	75.1000
191.80	75.8000
192.18	75.0500
192.56	75.8500
192.93	76.2000
193.31	75.3500
193.68	75.4500
194.06	76.3000
194.44	76.2000
194.81	76.4500
195.19	76.3500
195.56	76.4500
195.94	76.3500
196.32	75.5000
196.69	76.7500
197.07	75.8500
197.44	75.9000
197.82	77.1000
198.19	76.3500
198.57	75.8000
198.95	76.0500
199.32	75.3000
199.70	76.1000
200.07	76.3000
200.45	75.7000
200.82	76.8000
201.20	75.1000
201.57	76.2000
201.95	75.4000
202.33	76.8500
202.70	77.2500
203.08	76.3500
203.45	76.6000
203.83	75.9500
204.20	76.6500
204.58	76.3500
204.95	76.0000
205.33	76.6000
205.70	77.0000
206.08	76.4000
206.45	76.6000
206.83	75.8500
207.20	76.2500
207.58	75.7500
207.95	75.7000
208.33	76.0000
208.70	76.3500
209.08	76.4000
209.45	76.6000
209.83	76.0500
210.20	76.7000
210.58	77.1500
210.95	77.5000
211.33	77.7000
211.70	76.4500
212.08	77.9500
212.45	77.0500
212.83	75.8000
213.20	76.6500
213.58	76.1000
213.95	75.5500
214.33	76.7500
214.70	76.6000
215.07	76.0000
215.45	76.1500
215.82	76.1000
216.20	76.2500
216.57	77.1500
216.95	75.8500
217.32	76.0000
217.70	76.4000
218.07	76.6500
218.44	76.2000
218.82	76.0500
219.19	77.0000
219.57	77.0500
219.94	76.3000
220.32	75.4500
220.69	77.2000
221.06	77.7000
221.44	76.1000
221.81	76.1000
222.19	76.3500
222.56	76.1000
222.93	76.2000
223.31	76.7000
223.68	75.3500
224.06	74.9000
224.43	75.6500
224.80	77.5500
225.18	77.3500
225.55	76.1000
225.92	76.8500
226.30	77.5500
226.67	76.0000
227.05	76.5000
227.42	75.0000
227.79	75.8500
228.17	76.5000
228.54	75.4500
228.91	77.0000
229.29	75.9000
229.66	75.8000
230.03	77.9500
230.41	76.9000
230.78	77.1500
231.15	76.9000
231.53	76.1500
231.90	76.6000
232.27	76.7500
232.65	76.4500
233.02	76.2500
233.39	76.7000
233.77	76.1000
234.14	75.3500
234.51	76.0500
234.89	77.4500
235.26	77.9000
235.63	77.3000
236.01	77.0000
236.38	76.8000
236.75	76.4000
237.12	76.8000
237.50	76.5000
237.87	77.1000
238.24	76.0000
238.62	76.5000
238.99	76.6500
239.36	75.8000
239.73	77.4000
240.11	76.8000
240.48	76.9000
240.85	77.9000
241.23	76.2500
241.60	77.7000
241.97	77.1000
242.34	77.3500
242.72	76.7000
243.09	76.5000
243.46	76.9000
243.83	77.0000
244.21	76.5000
244.58	76.3500
244.95	76.4000
245.32	76.1000
245.70	77.5000
246.07	76.4500
246.44	77.0000
246.81	76.7500
247.18	76.4000
247.56	76.7000
247.93	76.7500
248.30	76.3000
248.67	76.3500
249.04	76.2500
249.42	77.3000
249.79	77.4000
250.16	77.2000
250.53	77.0000
250.90	75.7000
251.28	76.6000
251.65	76.8500
252.02	76.5000
252.39	76.8500
252.76	76.8500
253.14	76.5000
253.51	76.2000
253.88	77.2500
254.25	77.7500
254.62	77.7000
254.99	77.1500
255.37	76.9000
255.74	77.3500
256.11	76.0500
256.48	76.9500
256.85	76.4000
257.22	76.7500
257.59	76.0500
257.97	76.5000
258.34	76.8000
258.71	76.1000
259.08	76.9500
259.45	76.7500
259.82	76.8500
260.19	77.4000
260.56	76.1000
260.94	77.1000
261.31	76.9500
261.68	77.0500
262.05	76.9500
262.42	76.4500
262.79	77.0500
263.16	76.5500
263.53	76.6500
263.90	76.3000
264.28	77.3000
264.65	77.6000
265.02	76.6000
265.39	77.6000
265.76	77.6500
266.13	76.3000
266.50	77.4000
266.87	77.7000
267.24	76.9500
267.61	77.2500
267.98	77.6000
268.35	77.3000
268.72	76.7000
269.09	75.9000
269.46	76.5000
269.84	77.0000
270.21	76.3500
270.58	76.0500
270.95	76.0000
271.32	75.9500
271.69	77.2000
272.06	77.4000
272.43	77.5500
272.80	77.2000
273.17	77.4000
273.54	76.7000
273.91	77.8000
274.28	78.1000
274.65	77.1000
275.02	76.7500
275.39	76.7000
275.76	76.7500
276.13	76.8500
276.50	77.2000
276.87	77.3500
277.24	77.0500
277.61	76.8500
277.98	77.4000
278.35	76.7500
278.72	76.7500
279.09	76.1500
279.46	77.9500
279.83	76.5500
280.20	77.0000
280.57	77.5000
280.94	79.1000
281.31	77.4500
281.67	77.0000
282.04	77.7000
282.41	77.3500
282.78	77.5000
283.15	76.5000
283.52	77.6500
283.89	77.0500
284.26	77.2000
284.63	77.3500
285.00	76.5000
285.37	77.2000
285.74	77.5500
286.11	77.7000
286.48	77.7500
286.85	76.3500
287.21	77.4000
287.58	77.4000
287.95	77.2000
288.32	77.2500
288.69	78.0500
289.06	77.3000
289.43	76.9000
289.80	77.8000
290.17	76.7000
290.54	76.1000
290.90	77.2000
291.27	76.9500
291.64	76.1500
292.01	78.6500
292.38	76.6000
292.75	77.4000
293.12	77.6000
293.48	77.8000
293.85	77.9500
294.22	78.6500
294.59	77.9500
294.96	77.6000
295.33	76.8500
295.70	78.4500
296.06	77.3500
296.43	77.1500
296.80	77.8000
297.17	77.2500
297.54	78.0500
297.91	76.3000
298.27	78.1500
298.64	77.1500
299.01	77.5500
299.38	78.1000
299.75	76.4000
300.11	77.4000
300.48	77.6000
300.85	77.9500
301.22	77.1500
301.59	77.4000
301.95	78.7000
302.32	77.2000
302.69	76.9000
303.06	77.2000
303.43	76.9500
303.79	77.5000
304.16	77.7500
304.53	78.1000
304.90	77.7500
305.26	77.5500
305.63	78.2500
306.00	77.5500
306.37	76.8500
306.73	77.7500
307.10	77.2000
307.47	77.9500
307.84	77.7000
308.20	77.4000
308.57	77.0000
308.94	78.1500
309.31	77.7000
309.67	77.4000
310.04	77.6500
310.41	76.5000
310.77	76.4000
311.14	78.3000
311.51	77.4500
311.88	78.1000
312.24	77.5000
312.61	77.8500
312.98	76.8000
313.34	76.6000
313.71	78.0000
314.08	78.2000
314.44	78.4000
314.81	78.4500
315.18	77.4000
315.55	76.6500
315.91	77.7500
316.28	76.9500
316.65	77.9000
317.01	77.3000
317.38	78.1500
317.75	77.5500
318.11	78.0000
318.48	77.5000
318.84	78.0500
319.21	77.9500
319.58	76.3000
319.94	77.6000
320.31	76.8000
320.68	77.8000
321.04	76.6000
321.41	78.5000
321.78	78.1500
322.14	77.9500
322.51	77.9500
322.87	78.2000
323.24	77.7000
323.61	77.6000
323.97	78.3000
324.34	77.3000
324.70	77.3500
325.07	77.0000
325.44	78.2000
325.80	77.8500
326.17	78.3500
326.53	78.9000
326.90	78.0000
327.27	78.0000
327.63	76.5000
328.00	77.0500
328.36	78.1000
328.73	77.7500
329.09	78.1500
329.46	77.3500
329.83	77.5500
330.19	77.5500
330.56	78.2500
330.92	77.5000
331.29	78.0500
331.65	77.3500
332.02	77.8000
332.38	77.5000
332.75	77.9000
333.11	77.0500
333.48	78.4500
333.84	79.5500
334.21	78.0500
334.58	78.1000
334.94	78.6500
335.31	77.9500
335.67	78.6500
336.04	77.7000
336.40	77.9000
336.77	77.4000
337.13	79.0000
337.50	78.3000
337.86	78.4000
338.22	78.0500
338.59	78.2500
338.95	78.9500
339.32	78.6500
339.68	78.2000
340.05	78.2000
340.41	78.5500
340.78	78.5500
341.14	77.4500
341.51	77.1500
341.87	78.5000
342.24	77.1500
342.60	78.9500
342.96	79.1000
343.33	79.0500
343.69	78.1500
344.06	78.6500
344.42	78.9000
344.79	79.7500
345.15	78.1500
345.51	78.6500
345.88	79.4000
346.24	78.6000
346.61	78.9000
346.97	78.1000
347.34	79.3500
347.70	77.8500
348.06	78.1000
348.43	77.4000
348.79	78.7000
349.16	78.5000
349.52	77.6000
349.88	80.3500
350.25	78.9000
350.61	79.5500
350.97	78.1500
351.34	78.5000
351.70	78.0500
352.07	79.3000
352.43	78.4500
352.79	78.8000
353.16	78.8500
353.52	78.5000
353.88	78.9500
354.25	80.3500
354.61	79.1000
354.97	79.6000
355.34	79.3000
355.70	78.8500
356.06	78.8500
356.43	79.3500
356.79	79.2500
357.15	78.8500
357.52	78.8000
357.88	79.0500
358.24	78.9500
358.60	79.4000
358.97	79.8000
359.33	80.3000
359.69	80.0500
360.06	79.2000
360.42	78.1000
360.78	79.7000
361.14	79.7500
361.51	80.3500
361.87	79.2000
362.23	79.7500
362.60	78.9000
362.96	79.1500
363.32	79.6000
363.68	79.8000
364.05	80.1500
364.41	80.4500
364.77	80.4000
365.13	80.2500
365.50	80.4500
365.86	79.7500
366.22	80.2500
366.58	80.8000
366.95	80.8000
367.31	80.2500
367.67	80.8000
368.03	81.4000
368.39	80.6500
368.76	81.0000
369.12	81.1500
369.48	81.9000
369.84	80.6000
370.20	80.2500
370.57	80.0000
370.93	80.7500
371.29	81.0500
371.65	81.4500
372.01	82.1500
372.38	82.0500
372.74	82.6500
373.10	82.4500
373.46	82.4000
373.82	81.9500
374.18	81.6500
374.55	81.9500
374.91	82.4500
375.27	82.6000
375.63	81.9500
375.99	81.8500
376.35	82.7500
376.71	83.1000
377.08	82.4500
377.44	83.0000
377.80	83.5000
378.16	81.9000
378.52	84.8500
378.88	83.8500
379.24	83.7000
379.60	84.3500
379.97	83.0000
380.33	83.5500
380.69	83.4000
381.05	83.4000
381.41	85.1000
381.77	83.5500
382.13	85.5000
382.49	83.5500
382.85	85.1500
383.21	86.4000
383.57	85.1500
383.94	84.5500
384.30	85.1000
384.66	86.4500
385.02	85.5500
385.38	86.6500
385.74	85.8500
386.10	86.3000
386.46	86.7500
386.82	86.8000
387.18	86.6000
387.54	86.9500
387.90	87.2500
388.26	87.6000
388.62	88.3500
388.98	87.2500
389.34	86.2000
389.70	88.4500
390.06	86.2500
390.42	87.2500
390.78	88.3500
391.14	89.3000
391.50	89.6000
391.86	90.2500
392.22	89.3000
392.58	88.8500
392.94	87.5000
393.30	89.3000
393.66	88.9500
394.02	90.2500
394.38	88.6500
394.74	90.7500
395.10	90.3000
395.46	90.6500
395.82	90.6500
396.18	90.5000
396.54	91.8000
396.90	92.6000
397.26	93.5500
397.62	92.4000
397.98	93.0000
398.34	91.0500
398.70	92.0500
399.05	91.1000
399.41	91.5500
399.77	92.8000
400.13	92.2000
400.49	93.3000
400.85	95.0000
401.21	93.5500
401.57	96.6500
401.93	94.7000
402.29	94.0500
402.65	94.5000
403.00	96.2500
403.36	96.2000
403.72	95.3000
404.08	97.7000
404.44	95.1500
404.80	96.9500
405.16	99.0500
405.52	98.1000
405.87	99.0000
406.23	99.3000
406.59	97.0500
406.95	96.7000
407.31	98.7000
407.67	98.4500
408.03	98.5500
408.38	99.6000
408.74	102.3500
409.10	101.3500
409.46	99.1000
409.82	102.3500
410.17	101.0500
410.53	101.2500
410.89	102.4500
411.25	100.1000
411.61	100.8000
411.97	102.5500
412.32	103.4500
412.68	104.0000
413.04	103.4500
413.40	99.0500
413.75	101.9000
414.11	103.9500
414.47	102.9500
414.83	105.7000
415.19	103.9000
415.54	104.1000
415.90	104.8000
416.26	105.6000
416.62	107.4000
416.97	104.4500
417.33	106.9000
417.69	107.9000
418.05	106.1500
418.40	105.6500
418.76	107.1000
419.12	109.2500
419.48	109.1000
419.83	110.9500
420.19	106.6000
420.55	107.7000
420.90	112.3500
421.26	108.7000
421.62	108.9000
421.98	111.8000
422.33	112.6000
422.69	112.9500
423.05	115.8500
423.40	109.1000
423.76	108.5000
424.12	115.4000
424.47	114.3500
424.83	114.9000
425.19	113.0500
425.54	112.2500
425.90	115.3500
426.26	117.4500
426.61	118.5000
426.97	109.8500
427.33	116.5000
427.68	116.8000
428.04	120.2000
428.40	121.8500
428.75	124.2000
429.11	119.2500
429.47	123.7500
429.82	123.9000
430.18	122.8000
430.53	122.7000
430.89	122.3000
431.25	124.0000
431.60	124.4000
431.96	124.3000
432.31	122.7500
432.67	126.9000
433.03	129.2500
433.38	125.9500
433.74	127.7500
434.09	126.5000
434.45	125.3500
434.81	124.6500
435.16	129.6000
435.52	125.7500
435.87	124.9500
436.23	125.6000
436.58	127.4500
436.94	129.0000
437.30	129.8000
437.65	134.1000
438.01	132.6500
438.36	132.0000
438.72	130.8500
439.07	129.4500
439.43	130.3000
439.78	135.5500
440.14	139.0500
440.49	131.9500
440.85	133.0000
441.20	136.7000
441.56	135.6500
441.91	143.3000
442.27	137.3000
442.62	137.0500
442.98	138.2500
443.33	137.8000
443.69	138.0500
444.04	140.2500
444.40	134.8000
444.75	140.8000
445.11	143.3500
445.46	144.9500
445.82	143.4000
446.17	140.3000
446.53	145.5000
446.88	152.5000
447.23	139.0500
447.59	140.0500
447.94	140.1000
448.30	145.5500
448.65	144.2500
449.01	147.7500
449.36	149.2000
449.72	155.8000
450.07	158.4500
450.42	156.2500
450.78	151.4000
451.13	156.3000
451.49	153.9500
451.84	149.4000
452.19	150.6500
452.55	155.4500
452.90	155.7000
453.26	162.7500
453.61	164.7500
453.96	151.2500
454.32	161.4000
454.67	159.1500
455.02	154.0000
455.38	158.3000
455.73	158.1500
456.09	165.2000
456.44	165.6000
456.79	165.9500
457.15	164.5000
457.50	160.8500
457.85	163.6500
458.21	161.9000
458.56	168.1500
458.91	166.4500
459.27	159.9500
459.62	164.3000
459.97	166.0000
460.32	170.7500
460.68	169.7000
461.03	170.0000
461.38	171.0500
461.74	181.4500
462.09	177.5500
462.44	171.5000
462.80	171.6500
463.15	173.2500
463.50	172.9500
463.85	180.9000
464.21	178.5000
464.56	183.3500
464.91	173.7000
465.26	179.3000
465.62	180.6000
465.97	188.4500
466.32	186.5500
466.67	186.3000
467.03	186.5500
467.38	190.0500
467.73	191.2500
468.08	194.6000
468.44	196.3000
468.79	197.5000
469.14	188.9500
469.49	197.0500
469.85	201.0500
470.20	213.4500
470.55	211.1000
470.90	214.5000
471.25	206.7000
471.61	212.6500
471.96	213.2500
472.31	218.9000
472.66	217.6000
473.01	223.6500
473.36	226.7500
473.72	226.5000
474.07	230.2500
474.42	232.0000
474.77	233.4000
475.12	236.5500
475.47	243.8500
475.83	242.7000
476.18	243.3500
476.53	242.8500
476.88	251.4500
477.23	253.8000
477.58	251.7000
477.93	256.4000
478.28	253.5000
478.64	260.1500
478.99	265.9500
479.34	269.3000
479.69	271.2000
480.04	275.7500
480.39	277.7500
480.74	273.8500
481.09	286.6500
481.44	287.0000
481.79	285.5500
482.15	290.1500
482.50	292.8500
482.85	293.4000
483.20	302.1500
483.55	303.1000
483.90	306.5000
484.25	306.2500
484.60	306.6500
484.95	312.8500
485.30	313.0000
485.65	316.7000
486.00	322.2000
486.35	318.4500
486.70	318.9500
487.05	329.6000
487.40	328.7000
487.75	331.2500
488.10	334.7000
488.45	331.7500
488.80	336.7500
489.15	342.1500
489.50	343.9500
489.85	345.3000
490.20	345.3000
490.55	349.4500
490.90	350.4000
491.25	353.0000
491.60	352.3500
491.95	354.5000
492.30	357.5500
492.65	360.7500
493.00	362.4000
493.35	363.4500
493.70	364.8500
494.05	368.3500
494.40	372.7000
494.75	374.0000
495.10	373.8000
495.45	375.8000
495.80	379.5500
496.15	383.9000
496.50	379.4500
496.84	382.0000
497.19	381.8500
497.54	389.0500
497.89	392.2000
498.24	391.6000
498.59	397.1500
498.94	393.8000
499.29	397.3000
499.64	402.5000
499.99	407.5500
500.33	410.4500
500.68	410.7000
501.03	413.3500
501.38	418.5000
501.73	421.8000
502.08	422.5000
502.43	428.4500
502.77	432.1000
503.12	438.5000
503.47	442.3000
503.82	449.2500
504.17	454.8500
504.52	463.5000
504.86	465.5500
505.21	477.2500
505.56	483.6500
505.91	488.1500
506.26	495.3000
506.61	507.0500
506.95	513.4500
507.30	523.1500
507.65	535.9000
508.00	543.1500
508.35	555.3000
508.69	566.3500
509.04	581.6000
509.39	590.1500
509.74	603.8000
510.08	617.9000
510.43	640.7000
510.78	653.1500
511.13	668.2000
511.47	686.8000
511.82	707.6000
512.17	720.5000
512.52	746.4500
512.86	769.0500
513.21	791.0500
513.56	807.5000
513.91	834.4000
514.25	857.0000
514.60	882.0000
514.95	907.9500
515.30	932.5000
515.64	953.6000
515.99	987.1000
516.34	1014.8000
516.68	1044.1000
517.03	1070.4500
517.38	1091.6000
517.72	1137.4000
518.07	1155.1000
518.42	1180.4000
518.76	1217.9000
519.11	1242.1000
519.46	1278.5500
519.80	1292.8000
520.15	1320.1000
520.50	1354.0500
520.84	1373.0000
521.19	1398.9500
521.54	1430.1000
521.88	1445.3000
522.23	1480.2500
522.58	1497.5500
522.92	1519.6500
523.27	1549.6500
523.61	1560.6000
523.96	1582.0500
524.31	1616.6500
524.65	1635.3500
525.00	1643.9500
525.34	1637.7000
525.69	1661.2000
526.04	1689.4500
526.38	1713.2500
526.73	1719.8500
527.07	1747.4500
527.42	1751.8500
527.76	1768.8500
528.11	1788.7500
528.46	1781.3500
528.80	1789.7000
529.15	1793.5500
529.49	1799.2000
529.84	1818.5500
530.18	1830.5000
530.53	1846.8500
530.87	1847.0000
531.22	1845.9500
531.56	1862.2500
531.91	1869.6000
532.25	1868.6500
532.60	1876.1500
532.94	1887.1500
533.29	1889.2000
533.63	1882.9500
533.98	1883.2000
534.32	1897.1500
534.67	1925.0500
535.01	1936.7500
535.36	1923.2500
535.70	1947.6500
536.05	1950.2500
536.39	1963.4000
536.74	1941.6000
537.08	1931.5000
537.43	1935.6500
537.77	1962.6000
538.12	1978.7000
538.46	1978.8500
538.80	1987.0500
539.15	1968.8500
539.49	1985.7000
539.84	2008.5500
540.18	2006.8000
540.53	2005.1500
540.87	2005.4000
541.21	2026.0500
541.56	2018.7500
541.90	2038.2000
542.25	2023.7000
542.59	2022.5500
542.93	2045.3500
543.28	2033.3500
543.62	2045.9000
543.97	2050.7500
544.31	2059.3000
544.65	2063.6499
545.00	2071.5500
545.34	2084.2500
545.68	2080.7000
546.03	2075.5000
546.37	2093.3000
546.71	2096.9500
547.06	2104.6001
547.40	2108.3501
547.74	2131.7000
548.09	2118.3000
548.43	2124.7000
548.77	2128.3999
549.12	2132.9500
549.46	2129.8000
549.80	2144.3000
550.15	2165.5000
550.49	2163.3000
550.83	2165.0500
551.17	2180.5000
551.52	2175.1499
551.86	2173.8000
552.20	2182.7000
552.55	2199.6499
552.89	2200.6499
553.23	2208.3999
553.57	2219.1499
553.92	2220.2500
554.26	2233.0500
554.60	2224.3999
554.94	2231.9500
555.29	2247.3999
555.63	2251.3999
555.97	2260.3501
556.31	2264.3000
556.66	2275.5500
557.00	2269.3000
557.34	2282.1499
557.68	2296.8999
558.02	2296.7500
558.37	2306.3999
558.71	2303.1001
559.05	2304.0500
559.39	2319.1499
559.73	2327.8999
560.08	2322.2500
560.42	2339.8999
560.76	2337.8501
561.10	2346.3000
561.44	2335.2000
561.78	2356.0000
562.13	2370.2500
562.47	2355.1001
562.81	2372.5000
563.15	2374.2000
563.49	2376.8999
563.83	2388.9500
564.17	2387.8501
564.52	2390.3999
564.86	2404.2000
565.20	2399.0500
565.54	2398.8000
565.88	2404.6499
566.22	2419.3999
566.56	2406.1001
566.90	2419.8000
567.24	2429.8501
567.59	2421.5500
567.93	2432.6499
568.27	2443.0000
568.61	2451.9500
568.95	2438.3501
569.29	2436.2000
569.63	2468.5500
569.97	2456.0000
570.31	2421.7000
570.65	2442.5000
570.99	2456.7000
571.33	2468.6499
571.67	2450.8999
572.01	2455.6499
572.35	2469.8501
572.69	2477.6001
573.03	2484.1001
573.37	2473.2500
573.71	2470.2500
574.05	2458.2500
574.39	2466.5500
574.73	2486.6001
575.07	2465.8501
575.41	2470.5000
575.75	2488.6001
576.09	2507.0500
576.43	2490.0000
576.77	2490.1001
577.11	2476.0500
577.45	2494.4500
577.79	2479.2000
578.13	2499.3000
578.47	2472.8000
578.81	2475.6001
579.15	2486.4500
579.49	2515.3501
579.83	2514.1001
580.17	2515.1001
580.51	2504.1499
580.85	2512.0500
581.19	2503.2500
581.53	2491.7500
581.87	2498.1499
582.20	2499.5500
582.54	2506.8501
582.88	2503.0000
583.22	2494.6001
583.56	2487.7000
583.90	2518.3999
584.24	2506.5000
584.58	2504.3501
584.92	2522.3000
585.25	2523.2500
585.59	2511.9500
585.93	2525.8501
586.27	2539.0500
586.61	2508.1499
586.95	2532.0500
587.29	2535.2500
587.62	2514.1001
587.96	2523.0000
588.30	2534.0000
588.64	2524.8999
588.98	2526.1001
589.31	2540.5500
589.65	2530.7000
589.99	2517.5000
590.33	2533.2500
590.67	2540.1499
591.01	2542.0000
591.34	2556.6001
591.68	2550.8501
592.02	2559.5000
592.36	2550.3999
592.69	2546.2000
593.03	2558.8999
593.37	2563.9500
593.71	2555.8999
594.04	2559.3999
594.38	2553.1499
594.72	2575.8000
595.06	2559.3999
595.39	2561.6001
595.73	2570.5500
596.07	2588.7500
596.41	2583.6001
596.74	2579.7500
597.08	2581.3000
597.42	2583.7500
597.76	2571.2500
598.09	2591.8999
598.43	2577.0500
598.77	2601.3000
599.10	2608.3999
599.44	2598.1001
599.78	2597.4500
600.11	2606.7500
600.45	2611.1499
600.79	2607.5500
601.12	2601.3000
601.46	2624.8000
601.80	2628.3501
602.13	2609.8999
602.47	2628.2000
602.81	2616.9500
603.14	2616.8501
603.48	2637.1001
603.82	2626.3999
604.15	2622.0000
604.49	2633.8999
604.82	2633.4500
605.16	2643.3501
605.50	2622.9500
605.83	2652.7500
606.17	2652.3000
606.50	2654.3000
606.84	2638.8999
607.18	2643.6499
607.51	2640.3000
607.85	2653.9500
608.18	2653.2000
608.52	2655.8000
608.86	2653.7000
609.19	2668.1001
609.53	2640.8000
609.86	2672.0500
610.20	2669.6499
610.53	2656.9500
610.87	2646.5000
611.20	2690.3999
611.54	2647.0000
611.87	2660.3501
612.21	2668.5500
612.54	2660.7000
612.88	2663.7500
613.21	2667.2500
613.55	2672.1001
613.88	2651.9500
614.22	2663.1499
614.55	2649.8999
614.89	2641.6499
615.22	2648.7000
615.56	2649.8999
615.89	2663.8000
616.23	2670.8999
616.56	2639.7500
616.90	2664.3501
617.23	2649.1001
617.57	2670.4500
617.90	2659.3000
618.24	2663.2000
618.57	2663.3000
618.90	2653.9500
619.24	2650.9500
619.57	2653.8999
619.91	2677.9500
620.24	2625.7000
620.58	2659.5500
620.91	2648.8000
621.24	2653.5500
621.58	2656.9500
621.91	2644.8000
622.25	2647.2000
622.58	2648.7000
622.91	2673.9500
623.25	2635.0500
623.58	2643.7500
623.91	2638.6001
624.25	2645.3501
624.58	2649.7500
624.92	2648.4500
625.25	2646.7500
625.58	2632.3999
625.92	2657.8000
626.25	2644.7000
626.58	2657.3501
626.92	2644.2500
627.25	2654.6001
627.58	2632.4500
627.91	2643.3999
628.25	2640.4500
628.58	2647.7500
628.91	2628.2500
629.25	2641.3999
629.58	2626.3999
629.91	2629.3999
630.25	2641.6499
630.58	2630.6001
630.91	2628.8999
631.24	2635.4500
631.58	2638.2000
631.91	2645.3501
632.24	2605.4500
632.57	2621.0500
632.91	2624.8999
633.24	2605.1499
633.57	2621.4500
633.90	2623.6001
634.24	2610.9500
634.57	2617.8501
634.90	2626.2500
635.23	2587.8501
635.56	2602.1499
635.90	2598.3000
636.23	2601.7000
636.56	2600.7000
636.89	2604.8000
637.22	2607.8999
637.56	2598.7000
637.89	2576.0500
638.22	2594.0500
638.55	2599.8501
638.88	2563.0500
639.21	2588.5500
639.55	2571.3999
639.88	2574.6001
640.21	2584.2000
640.54	2576.0000
640.87	2563.3000
641.20	2563.1001
641.53	2584.0000
641.87	2566.3000
642.20	2565.1499
642.53	2559.8000
642.86	2565.1001
643.19	2558.8000
643.52	2558.6499
643.85	2547.5500
644.18	2551.5500
644.51	2545.2000
644.84	2555.7500
645.18	2539.6001
645.51	2535.3501
645.84	2542.8000
646.17	2531.9500
646.50	2550.8501
646.83	2552.1001
647.16	2521.6001
647.49	2536.3999
647.82	2533.6499
648.15	2534.6001
648.48	2536.8999
648.81	2533.8501
649.14	2520.5000
649.47	2528.3999
649.80	2519.4500
650.13	2509.1499
650.46	2526.2500
650.79	2522.8999
651.12	2530.6001
651.45	2524.6001
651.78	2506.5000
652.11	2518.7500
652.44	2502.7500
652.77	2511.5500
653.10	2523.8501
653.43	2519.0500
653.76	2518.2000
654.09	2493.8501
654.42	2509.8000
654.75	2513.3000
655.08	2486.1499
655.41	2493.0000
655.74	2469.5500
656.07	2498.9500
656.39	2495.2500
656.72	2491.1499
657.05	2482.9500
657.38	2509.6001
657.71	2503.3000
658.04	2489.0500
658.37	2481.7000
658.70	2491.2000
659.03	2481.8999
659.36	2489.9500
659.68	2488.1499
660.01	2488.2500
660.34	2488.4500
660.67	2484.1499
661.00	2495.6499
661.33	2469.1001
661.66	2468.5500
661.98	2481.5000
662.31	2470.8000
662.64	2464.0000
662.97	2468.5500
663.30	2454.3999
663.63	2461.8999
663.95	2449.8999
664.28	2451.5500
664.61	2444.5500
664.94	2448.1001
665.27	2458.5000
665.59	2440.2000
665.92	2458.8999
666.25	2433.7000
666.58	2421.8000
666.91	2457.8501
667.23	2431.8999
667.56	2420.3501
667.89	2419.2000
668.22	2423.0500
668.54	2430.3999
668.87	2436.8501
669.20	2420.7500
669.53	2421.9500
669.85	2423.3999
670.18	2408.1001
670.51	2399.5500
670.83	2393.1499
671.16	2406.5000
671.49	2412.5500
671.82	2401.1001
672.14	2385.6001
672.47	2389.8501
672.80	2383.8000
673.12	2389.8000
673.45	2397.6001
673.78	2362.3501
674.10	2377.2500
674.43	2367.6001
674.76	2359.8999
675.08	2373.8999
675.41	2358.7000
675.74	2356.7000
676.06	2358.8999
676.39	2339.3000
676.72	2337.3000
677.04	2345.9500
677.37	2345.0000
677.69	2327.8000
678.02	2324.5000
678.35	2315.7000
678.67	2286.3501
679.00	2318.0500
679.32	2311.7500
679.65	2300.7500
679.98	2314.1499
680.30	2291.3501
680.63	2285.3501
680.95	2279.0000
681.28	2286.5500
681.60	2266.5000
681.93	2267.1499
682.26	2258.5000
682.58	2259.0000
682.91	2257.5000
683.23	2239.3000
683.56	2236.5500
683.88	2244.9500
684.21	2230.6001
684.53	2238.2000
684.86	2237.3999
685.18	2225.6499
685.51	2229.0500
685.83	2219.0000
686.16	2193.3000
686.48	2192.5000
686.81	2202.9500
687.13	2205.3999
687.46	2192.7000
687.78	2204.3501
688.11	2174.7000
688.43	2175.4500
688.76	2170.8000
689.08	2165.0500
689.41	2157.3000
689.73	2148.6001
690.05	2146.2500
690.38	2145.8999
690.70	2138.8999
691.03	2123.3999
691.35	2126.0000
691.68	2099.5000
692.00	2105.3999
692.32	2117.7500
692.65	2107.5500
692.97	2110.8999
693.29	2107.3000
693.62	2087.1499
693.94	2104.0500
694.27	2077.0500
694.59	2048.0500
694.91	2070.0500
695.24	2074.3000
695.56	2053.2000
695.88	2047.5000
696.21	2021.8000
696.53	2011.4500
696.85	2033.4000
697.18	2030.0500
697.50	2019.1000
697.82	2034.3500
698.15	2020.5000
698.47	2014.9500
698.79	2019.7000
699.12	2017.5500
699.44	1977.8000
699.76	1976.9000
700.09	1988.6500
700.41	1985.9000
700.73	1971.3000
701.05	1982.1000
701.38	1967.0000
701.70	1970.2000
702.02	1971.7500
702.34	1951.5000
702.67	1965.6500
702.99	1961.1500
703.31	1941.4500
703.63	1945.5500
703.96	1932.4000
704.28	1923.1500
704.60	1914.7500
704.92	1930.2500
705.25	1919.7000
705.57	1915.9500
705.89	1912.3500
706.21	1906.8000
706.53	1904.0500
706.86	1900.8500
707.18	1892.8500
707.50	1905.4500
707.82	1884.2500
708.14	1890.2000
708.46	1897.5500
708.79	1872.1000
709.11	1886.4000
709.43	1862.7000
709.75	1866.0000
710.07	1855.8500
710.39	1864.7500
710.71	1854.5500
711.04	1845.4500
711.36	1844.2000
711.68	1835.9000
712.00	1832.2500
712.32	1840.0000
712.64	1820.1500
712.96	1821.0000
713.28	1807.3500
713.60	1823.3000
713.92	1804.3000
714.24	1808.5000
714.57	1805.6500
714.89	1800.8500
715.21	1793.2000
715.53	1779.2000
715.85	1782.5500
716.17	1782.6500
716.49	1786.2000
716.81	1775.2500
717.13	1777.1500
717.45	1762.4500
717.77	1755.2000
718.09	1749.8500
718.41	1756.8000
718.73	1751.4000
719.05	1737.1500
719.37	1715.6000
719.69	1731.1000
720.01	1732.1500
720.33	1710.2000
720.65	1709.5500
720.97	1708.6500
721.29	1693.3000
721.61	1708.2000
721.93	1696.5500
722.25	1687.6500
722.57	1683.5000
722.89	1676.7000
723.21	1682.5000
723.52	1671.6500
723.84	1657.9500
724.16	1670.2500
724.48	1665.2000
724.80	1664.2000
725.12	1654.9000
725.44	1659.9000
725.76	1645.3500
726.08	1653.2000
726.40	1640.9500
726.72	1653.1500
727.03	1652.5000
727.35	1642.3000
727.67	1626.9000
727.99	1633.9000
728.31	1632.1000
728.63	1626.6000
728.95	1630.0500
729.26	1609.6500
729.58	1613.2000
729.90	1615.7500
730.22	1588.8000
730.54	1587.0000
730.86	1602.7000
731.17	1606.4000
731.49	1590.0000
731.81	1595.7500
732.13	1596.4000
732.45	1576.7000
732.76	1572.7500
733.08	1575.4000
733.40	1571.2000
733.72	1562.8000
734.03	1558.3500
734.35	1563.2000
734.67	1569.7000
734.99	1552.8000
735.30	1554.3000
735.62	1551.2500
735.94	1547.8500
736.26	1532.7000
736.57	1531.7500
736.89	1542.2500
737.21	1514.4000
737.53	1513.1000
737.84	1511.2000
738.16	1502.2500
738.48	1502.0500
738.79	1500.6500
739.11	1489.8500
739.43	1487.0000
739.74	1480.7000
740.06	1473.0500
740.38	1466.4000
740.69	1457.3000
741.01	1455.7500
741.33	1446.6500
741.64	1441.4000
741.96	1435.1500
742.28	1440.2000
742.59	1414.7000
742.91	1417.8000
743.23	1413.7000
743.54	1417.1000
743.86	1400.6000
744.17	1388.8500
744.49	1394.3000
744.81	1388.1000
745.12	1379.0500
745.44	1367.9000
745.75	1369.8000
746.07	1366.6500
746.38	1361.9000
746.70	1355.3500
747.02	1361.6500
747.33	1345.2500
747.65	1345.3500
747.96	1338.6500
748.28	1334.1000
748.59	1334.7500
748.91	1327.1500
749.22	1332.3000
749.54	1324.1000
749.85	1324.6000
750.17	1320.0500
750.48	1314.5500
750.80	1314.6000
751.11	1308.7000
751.43	1310.5000
751.74	1308.8000
752.06	1305.9500
752.37	1295.5500
752.69	1303.3500
753.00	1291.8500
753.32	1292.5000
753.63	1295.4000
753.95	1291.9000
754.26	1283.5000
754.58	1284.1000
754.89	1284.3000
755.20	1284.9000
755.52	1279.2500
755.83	1278.4000
756.15	1274.2000
756.46	1264.7500
756.78	1264.8500
757.09	1259.5500
757.40	1259.7000
757.72	1258.7500
758.03	1255.2000
758.34	1252.8000
758.66	1259.5500
758.97	1251.0000
759.29	1250.0000
759.60	1247.6000
759.91	1238.0000
760.23	1243.3000
760.54	1242.6500
760.85	1238.7000
761.17	1230.9000
761.48	1226.7000
761.79	1216.4000
762.11	1217.0500
762.42	1213.0000
762.73	1222.3000
763.05	1215.5500
763.36	1220.8000
763.67	1213.0000
763.98	1197.3000
764.30	1184.0500
764.61	1196.2000
764.92	1192.5000
765.23	1187.1500
765.55	1181.6000
765.86	1179.6500
766.17	1181.2500
766.48	1175.7000
766.80	1161.9500
767.11	1171.5500
767.42	1149.6000
767.73	1146.8000
768.05	1153.4500
768.36	1157.3000
768.67	1163.9500
768.98	1151.1000
769.29	1159.5000
769.61	1142.8000
769.92	1122.1500
770.23	1127.8000
770.54	1106.9500
770.85	1119.7500
771.17	1117.4000
771.48	1116.6000
771.79	1112.2500
772.10	1102.6500
772.41	1103.6000
772.72	1088.0500
773.03	1080.8500
773.35	1076.4000
773.66	1064.8500
773.97	1068.7500
774.28	1066.6500
774.59	1056.5000
774.90	1062.6500
775.21	1065.8000
775.52	1059.3000
775.83	1053.7000
776.15	1041.6000
776.46	1032.2500
776.77	1026.1500
777.08	1031.4500
777.39	1032.3500
777.70	1015.9500
778.01	1021.6500
778.32	1023.8000
778.63	1022.8500
778.94	1015.1000
779.25	1005.6000
779.56	998.9000
779.87	988.9500
780.18	978.3500
780.49	978.9000
780.80	979.2500
781.11	968.9500
781.42	968.3000
781.73	965.4500
782.04	949.7000
782.35	944.1000
782.66	945.1000
782.97	941.9500
783.28	948.3500
783.59	934.8500
783.90	938.2000
784.21	925.5500
784.52	919.0500
784.83	912.7500
785.14	910.6500
785.45	903.2000
785.76	898.0500
786.06	903.3500
786.37	906.9000
786.68	892.9000
786.99	890.2000
787.30	888.7000
787.61	887.9000
787.92	876.6000
788.23	866.3500
788.54	877.0500
788.84	868.0500
789.15	867.7500
789.46	861.5000
789.77	847.7000
790.08	851.8500
790.39	842.2500
790.70	849.9500
791.00	850.9500
791.31	831.7500
791.62	830.5500
791.93	828.0500
792.24	824.8000
792.54	818.8000
792.85	809.0000
793.16	809.4000
793.47	804.2500
793.78	804.1500
794.08	798.9000
794.39	792.7000
794.70	794.3500
795.01	787.8500
795.31	781.8000
795.62	771.9000
795.93	778.6000
796.24	781.4500
796.54	772.9000
796.85	770.6500
797.16	756.8000
797.47	749.2000
797.77	757.8500
798.08	747.3500
798.39	747.7500
798.69	752.4000
799.00	741.6500
799.31	738.8500
799.62	734.8000
799.92	727.4500
800.23	729.5000
800.54	726.3500
800.84	719.8500
801.15	713.7000
801.46	716.2000
801.76	713.7000
802.07	702.4500
802.37	697.6000
802.68	694.8000
802.99	698.5000
803.29	687.6500
803.60	685.0000
803.91	681.3000
804.21	680.1000
804.52	681.2500
804.82	672.1500
805.13	680.4500
805.44	672.8000
805.74	666.7500
806.05	670.1500
806.35	662.0000
806.66	654.8500
806.96	657.6500
807.27	649.0000
807.57	648.0500
807.88	646.6500
808.19	639.5000
808.49	639.9500
808.80	636.3500
809.10	632.1500
809.41	634.8000
809.71	623.3500
810.02	625.8500
810.32	619.5000
810.63	624.0500
810.93	623.5000
811.24	616.9000
811.54	618.6000
811.85	612.2000
812.15	604.2500
812.45	603.5500
812.76	599.4000
813.06	594.2500
813.37	595.1000
813.67	596.1000
813.98	587.8000
814.28	583.2000
814.58	585.1500
814.89	579.8500
815.19	578.6000
815.50	574.0000
815.80	570.7500
816.11	569.7000
816.41	571.6000
816.71	569.8000
817.02	564.6000
817.32	560.7500
817.62	556.1500
817.93	556.1000
818.23	551.9000
818.53	551.6000
818.84	556.3000
819.14	543.2000
819.44	546.4000
819.75	541.3500
820.05	536.0500
820.35	531.6500
820.66	530.3000
820.96	533.4500
821.26	529.6000
821.57	528.8000
821.87	522.9500
822.17	524.0500
822.48	522.8000
822.78	519.3500
823.08	514.6500
823.38	516.5500
823.69	510.0500
823.99	514.1000
824.29	508.0000
824.59	503.0000
824.90	505.4000
825.20	500.7500
825.50	494.9500
825.80	494.8500
826.10	498.2000
826.41	493.4000
826.71	490.2000
827.01	491.2000
827.31	493.9500
827.61	487.8500
827.92	489.0000
828.22	483.8500
828.52	480.7500
828.82	480.3000
829.12	473.5000
829.42	473.4000
829.73	472.4500
830.03	471.8500
830.33	469.9000
830.63	463.4000
830.93	463.1500
831.23	459.7500
831.53	461.9000
831.83	457.7500
832.14	454.9000
832.44	456.5500
832.74	454.6500
833.04	451.0500
833.34	454.0000
833.64	447.0500
833.94	443.9500
834.24	446.5500
834.54	449.2000
834.84	443.3000
835.14	438.9500
835.44	437.4500
835.74	439.3000
836.04	435.6000
836.34	436.7500
836.64	433.7500
836.95	432.3000
837.25	426.2500
837.55	426.8500
837.85	428.5500
838.15	427.6500
838.45	421.4000
838.74	419.6000
839.04	415.5500
839.34	416.6500
839.64	410.1500
839.94	409.9000
840.24	410.0500
840.54	413.5500
840.84	411.4500
841.14	405.4500
841.44	407.0500
841.74	405.2500
842.04	401.7500
842.34	401.4500
842.64	397.0000
842.94	399.4500
843.24	398.2000
843.53	395.5000
843.83	394.2000
844.13	389.4000
844.43	386.2500
844.73	391.2000
845.03	385.9000
845.33	383.1000
845.63	385.3000
845.92	379.5000
846.22	379.9000
846.52	378.7500
846.82	379.6500
847.12	376.3500
847.42	375.1000
847.71	371.1000
848.01	371.7500
848.31	369.1500
848.61	368.8000
848.91	368.1500
849.20	370.5000
849.50	363.9000
849.80	365.5500
850.10	361.4500
850.39	360.2000
850.69	359.3000
850.99	358.9500
851.29	354.3500
851.59	352.9500
851.88	353.3500
852.18	353.1000
852.48	353.8500
852.77	349.0000
853.07	347.5000
853.37	344.0500
853.67	344.7000
853.96	343.2500
854.26	343.2000
854.56	339.8500
854.85	339.7000
855.15	337.6500
855.45	339.3500
855.74	335.3000
856.04	332.3500
856.34	334.0000
856.63	331.7000
856.93	330.3500
857.23	330.1000
857.52	327.1000
857.82	322.9000
858.11	326.6500
858.41	322.9500
858.71	322.4500
859.00	319.2000
859.30	319.1500
859.59	316.5500
859.89	315.7500
860.19	311.9500
860.48	311.2500
860.78	313.4000
861.07	311.5500
861.37	308.6000
861.66	308.8500
861.96	306.2500
862.26	304.0000
862.55	304.8000
862.85	302.5500
863.14	300.2500
863.44	299.5500
863.73	297.7000
864.03	294.1000
864.32	296.4000
864.62	295.3500
864.91	293.7000
865.21	290.2500
865.50	289.1000
865.80	290.0500
866.09	289.8500
866.39	287.9500
866.68	290.2500
866.97	283.3000
867.27	282.6500
867.56	280.0500
867.86	278.4000
868.15	275.9000
868.45	273.7000
868.74	276.0500
869.03	274.4000
869.33	273.7500
869.62	272.4500
869.92	272.1000
870.21	264.8000
870.50	266.0000
870.80	264.0000
871.09	265.1500
871.39	262.4000
871.68	261.4000
871.97	259.4500
872.27	260.3000
872.56	257.3000
872.85	254.7000
873.15	254.6000
873.44	251.1000
873.73	252.8000
874.03	248.7500
874.32	249.6000
874.61	248.6000
874.90	246.6000
875.20	244.4500
875.49	244.8000
875.78	245.1500
>>>>>End Spectral Data<<<<<
