OOIBase32 Version 1.0.0.8 Data File
++++++++++++++++++++++++++++++++++++
Date: Monday, January 21, 1980, 02:20:31
User: Valued Ocean Optics Customer
Spectrometer Serial Number: Unknown
Spectrometer Channel: Master
Integration Time (msec): 7
Spectra Averaged: 20
Boxcar Smoothing: 0
Correct for Electrical Dark: Disabled
Time Normalized: Disabled
Dual-beam Reference: Disabled
Reference Channel: Master
>>>>>Begin Spectral Data<<<<<
179.00	0.0000
179.38	0.0000
179.75	73.0000
180.13	72.2000
180.51	73.0500
180.88	74.6000
181.26	74.0000
181.64	72.8000
182.02	73.1000
182.39	74.2000
182.77	73.2500
183.15	73.3500
183.52	73.5000
183.90	73.7500
184.28	73.2500
184.65	74.2000
185.03	73.3500
185.41	73.8000
185.78	73.7000
186.16	73.2000
186.53	74.5500
186.91	73.9500
187.29	72.9500
187.66	73.9500
188.04	74.3500
188.42	74.8500
188.79	75.7500
189.17	77.4500
189.55	77.2000
189.92	76.9000
190.30	76.8500
190.67	76.1000
191.05	77.7000
191.43	77.6000
191.80	76.4000
192.18	76.5000
192.56	76.9500
192.93	76.7000
193.31	76.9500
193.68	77.5000
194.06	77.1000
194.44	76.4500
194.81	77.2000
195.19	76.8000
195.56	77.5000
195.94	77.0500
196.32	77.1500
196.69	76.8000
197.07	77.2500
197.44	76.9000
197.82	76.9000
198.19	76.3000
198.57	76.1500
198.95	76.7000
199.32	77.2500
199.70	75.8500
200.07	76.5500
200.45	76.6000
200.82	77.4500
201.20	77.4000
201.57	77.6000
201.95	76.3000
202.33	76.4000
202.70	76.5500
203.08	77.4500
203.45	77.0500
203.83	76.6500
204.20	77.6500
204.58	76.4500
204.95	77.2500
205.33	77.8500
205.70	76.8000
206.08	76.7000
206.45	77.4000
206.83	75.9500
207.20	77.3500
207.58	77.8000
207.95	76.9500
208.33	77.3500
208.70	77.5500
209.08	77.8500
209.45	77.3500
209.83	76.9000
210.20	78.4500
210.58	77.9500
210.95	77.2000
211.33	78.3000
211.70	77.3500
212.08	77.9000
212.45	76.9500
212.83	77.6000
213.20	77.5500
213.58	76.6500
213.95	77.9000
214.33	78.6000
214.70	76.8500
215.07	78.2000
215.45	76.8500
215.82	77.3000
216.20	77.3500
216.57	76.9500
216.95	76.6500
217.32	77.4500
217.70	76.9000
218.07	76.5500
218.44	76.9000
218.82	76.3500
219.19	76.8000
219.57	77.1000
219.94	77.2000
220.32	76.9000
220.69	77.4000
221.06	77.6000
221.44	77.2000
221.81	77.6000
222.19	78.1000
222.56	77.0500
222.93	76.9000
223.31	78.1000
223.68	77.8500
224.06	77.6000
224.43	78.6000
224.80	78.0500
225.18	78.1000
225.55	78.4000
225.92	77.3500
226.30	77.7000
226.67	77.6000
227.05	77.8000
227.42	78.4000
227.79	77.6000
228.17	78.1000
228.54	77.5500
228.91	77.6000
229.29	76.9000
229.66	78.4000
230.03	77.1500
230.41	77.0500
230.78	77.2500
231.15	77.0500
231.53	76.7500
231.90	77.6500
232.27	78.3500
232.65	78.0000
233.02	77.0500
233.39	77.6000
233.77	77.7000
234.14	77.2500
234.51	77.2500
234.89	78.6000
235.26	77.1500
235.63	78.0000
236.01	78.2000
236.38	77.9500
236.75	77.0500
237.12	77.2000
237.50	77.6500
237.87	78.6000
238.24	76.7500
238.62	77.7000
238.99	78.0500
239.36	77.8500
239.73	77.6500
240.11	77.9000
240.48	77.8500
240.85	76.8000
241.23	77.0000
241.60	77.8500
241.97	78.0500
242.34	77.1000
242.72	78.3500
243.09	77.4000
243.46	77.9000
243.83	77.9500
244.21	77.6500
244.58	77.1000
244.95	78.2500
245.32	77.6000
245.70	77.9500
246.07	77.3500
246.44	78.1000
246.81	77.9000
247.18	79.8000
247.56	79.5000
247.93	78.6500
248.30	78.5500
248.67	77.4000
249.04	78.5500
249.42	78.6000
249.79	77.3500
250.16	77.0500
250.53	78.8000
250.90	79.2000
251.28	78.2000
251.65	77.6500
252.02	78.0000
252.39	77.5000
252.76	78.0500
253.14	77.7500
253.51	78.0500
253.88	78.5500
254.25	78.8500
254.62	78.2500
254.99	78.8500
255.37	77.4000
255.74	78.3500
256.11	79.0500
256.48	79.0000
256.85	78.9500
257.22	78.1000
257.59	78.1500
257.97	78.7000
258.34	79.0500
258.71	78.8500
259.08	78.0000
259.45	77.1000
259.82	78.3000
260.19	78.6000
260.56	78.1000
260.94	78.8000
261.31	78.6500
261.68	78.2500
262.05	79.1000
262.42	79.2000
262.79	77.2500
263.16	79.3500
263.53	77.9500
263.90	78.9500
264.28	77.4500
264.65	78.3000
265.02	78.7000
265.39	79.1500
265.76	77.8500
266.13	77.9000
266.50	78.6500
266.87	78.3000
267.24	77.8000
267.61	78.7000
267.98	78.1500
268.35	78.3000
268.72	78.9000
269.09	78.7000
269.46	78.4000
269.84	78.5500
270.21	78.5000
270.58	77.7500
270.95	78.2500
271.32	76.8500
271.69	78.0000
272.06	78.3000
272.43	78.3500
272.80	78.2000
273.17	78.7500
273.54	78.7500
273.91	78.4000
274.28	77.0500
274.65	77.8000
275.02	77.8500
275.39	78.3000
275.76	78.7000
276.13	78.0000
276.50	79.4500
276.87	78.1000
277.24	79.2500
277.61	78.2500
277.98	77.7500
278.35	77.9000
278.72	78.4500
279.09	78.3000
279.46	77.4000
279.83	77.3000
280.20	78.9500
280.57	77.2000
280.94	78.0500
281.31	78.6000
281.67	77.9500
282.04	78.9500
282.41	78.4000
282.78	77.8500
283.15	78.6500
283.52	78.6000
283.89	78.2000
284.26	79.4500
284.63	77.8500
285.00	77.4500
285.37	78.5500
285.74	78.5500
286.11	78.9000
286.48	79.5500
286.85	78.6000
287.21	77.1000
287.58	78.5500
287.95	78.1500
288.32	79.3500
288.69	78.4500
289.06	79.1000
289.43	79.4000
289.80	78.9000
290.17	79.1500
290.54	79.1500
290.90	78.9500
291.27	77.8500
291.64	78.6500
292.01	79.5000
292.38	78.6000
292.75	78.8500
293.12	78.1000
293.48	78.1000
293.85	78.2500
294.22	78.6000
294.59	79.2000
294.96	78.4500
295.33	78.3500
295.70	79.3500
296.06	79.2000
296.43	78.2500
296.80	77.6000
297.17	78.4500
297.54	78.6000
297.91	79.4000
298.27	79.1000
298.64	79.9500
299.01	78.5000
299.38	79.9000
299.75	79.3000
300.11	78.1500
300.48	78.8500
300.85	78.5500
301.22	78.1500
301.59	78.6500
301.95	78.2500
302.32	79.2000
302.69	78.2000
303.06	78.8000
303.43	78.6000
303.79	78.2000
304.16	77.9500
304.53	80.1000
304.90	79.2000
305.26	77.8000
305.63	78.5500
306.00	78.9500
306.37	79.7000
306.73	79.5000
307.10	79.0500
307.47	79.3500
307.84	78.3500
308.20	79.6000
308.57	79.5000
308.94	78.5500
309.31	80.1000
309.67	79.3000
310.04	78.8500
310.41	79.4000
310.77	79.1500
311.14	78.1500
311.51	79.0500
311.88	79.7000
312.24	78.8500
312.61	79.9000
312.98	79.8000
313.34	79.3500
313.71	78.9000
314.08	79.3000
314.44	78.6500
314.81	78.3500
315.18	79.1000
315.55	79.2000
315.91	79.5500
316.28	78.9500
316.65	79.2500
317.01	79.4000
317.38	79.3500
317.75	79.5500
318.11	79.5500
318.48	78.5000
318.84	78.7500
319.21	79.1000
319.58	79.3000
319.94	80.5000
320.31	79.0000
320.68	79.6000
321.04	79.5000
321.41	78.8000
321.78	79.4500
322.14	78.7500
322.51	79.0000
322.87	78.5000
323.24	79.7000
323.61	80.3000
323.97	79.2500
324.34	79.5000
324.70	79.8500
325.07	79.4000
325.44	79.0000
325.80	79.0000
326.17	79.3500
326.53	79.9500
326.90	79.5500
327.27	79.0000
327.63	78.8500
328.00	79.3500
328.36	79.1500
328.73	78.4500
329.09	78.5000
329.46	79.8500
329.83	78.9000
330.19	79.6500
330.56	79.3500
330.92	78.7000
331.29	79.3500
331.65	79.7500
332.02	78.9500
332.38	80.1500
332.75	79.0000
333.11	79.4000
333.48	79.0000
333.84	78.2000
334.21	79.4500
334.58	78.7500
334.94	79.6500
335.31	79.3500
335.67	79.3500
336.04	79.1500
336.40	79.8500
336.77	80.0500
337.13	80.5000
337.50	78.9000
337.86	79.3500
338.22	79.8500
338.59	80.4500
338.95	79.4500
339.32	79.4500
339.68	79.7000
340.05	79.8500
340.41	79.4000
340.78	80.5500
341.14	79.6500
341.51	79.6000
341.87	79.9500
342.24	79.2500
342.60	80.4500
342.96	80.2000
343.33	79.9000
343.69	81.4000
344.06	81.1000
344.42	80.4000
344.79	79.1000
345.15	79.5000
345.51	79.7000
345.88	79.6000
346.24	80.6500
346.61	80.1500
346.97	81.2000
347.34	81.0000
347.70	80.7500
348.06	80.1000
348.43	80.7500
348.79	79.9500
349.16	79.3000
349.52	80.4000
349.88	80.9500
350.25	80.5000
350.61	80.9500
350.97	81.0000
351.34	81.3000
351.70	80.8500
352.07	81.0500
352.43	80.5000
352.79	80.4500
353.16	81.7000
353.52	80.9000
353.88	81.4500
354.25	81.1500
354.61	80.0500
354.97	80.9500
355.34	81.2000
355.70	79.9500
356.06	80.0500
356.43	80.3500
356.79	81.0500
357.15	81.5500
357.52	82.0000
357.88	81.5500
358.24	81.0500
358.60	82.7500
358.97	82.7500
359.33	81.7000
359.69	81.6000
360.06	81.9500
360.42	81.9500
360.78	82.1000
361.14	82.4500
361.51	82.2000
361.87	82.3000
362.23	83.0000
362.60	82.8000
362.96	83.3500
363.32	83.8000
363.68	85.1500
364.05	82.9500
364.41	82.8500
364.77	83.9500
365.13	82.9000
365.50	84.0000
365.86	85.3500
366.22	84.8500
366.58	85.0500
366.95	84.6500
367.31	85.2000
367.67	85.8500
368.03	85.2500
368.39	86.0500
368.76	86.3000
369.12	86.4500
369.48	86.7500
369.84	87.2500
370.20	87.6500
370.57	86.9500
370.93	87.8500
371.29	87.2000
371.65	87.8000
372.01	88.3500
372.38	88.6500
372.74	88.8500
373.10	88.9500
373.46	89.3500
373.82	90.6500
374.18	89.8000
374.55	90.0000
374.91	91.3500
375.27	91.8000
375.63	92.7500
375.99	91.6500
376.35	92.6000
376.71	93.7500
377.08	93.3500
377.44	94.4000
377.80	94.5000
378.16	95.3000
378.52	94.7500
378.88	96.3000
379.24	97.4500
379.60	97.4000
379.97	99.3500
380.33	99.6500
380.69	100.0500
381.05	99.8000
381.41	100.8000
381.77	102.0000
382.13	101.6500
382.49	102.9000
382.85	103.3500
383.21	104.8000
383.57	102.8000
383.94	106.7000
384.30	106.6500
384.66	107.9500
385.02	107.7500
385.38	107.9500
385.74	108.9000
386.10	110.1500
386.46	112.8000
386.82	111.9500
387.18	112.4500
387.54	112.7500
387.90	113.3000
388.26	115.5000
388.62	117.2000
388.98	117.1500
389.34	117.9000
389.70	118.8500
390.06	115.8000
390.42	117.6500
390.78	123.4000
391.14	124.1000
391.50	122.8500
391.86	126.7500
392.22	127.3000
392.58	127.2500
392.94	122.9500
393.30	127.8500
393.66	129.4000
394.02	131.6500
394.38	128.0000
394.74	130.1500
395.10	132.2500
395.46	137.2000
395.82	135.7500
396.18	134.0000
396.54	139.8000
396.90	141.7000
397.26	140.9000
397.62	142.2500
397.98	147.6000
398.34	142.3500
398.70	144.2000
399.05	141.5500
399.41	141.9000
399.77	147.2000
400.13	151.2500
400.49	153.7500
400.85	156.6500
401.21	150.8000
401.57	161.6500
401.93	160.5000
402.29	157.2500
402.65	160.2000
403.00	165.3000
403.36	169.4500
403.72	165.4500
404.08	176.9000
404.44	167.0000
404.80	168.1000
405.16	176.0500
405.52	182.6000
405.87	184.1500
406.23	187.5500
406.59	176.9000
406.95	179.0500
407.31	183.5000
407.67	184.6000
408.03	184.4000
408.38	192.8000
408.74	201.7000
409.10	203.3000
409.46	193.5500
409.82	200.4000
410.17	199.8000
410.53	195.2000
410.89	202.2500
411.25	188.2500
411.61	199.0500
411.97	208.6500
412.32	206.4500
412.68	213.3500
413.04	208.7000
413.40	191.5000
413.75	206.4000
414.11	211.6000
414.47	209.7500
414.83	224.2000
415.19	217.7500
415.54	208.1500
415.90	222.6500
416.26	219.5000
416.62	228.5000
416.97	214.0000
417.33	229.9500
417.69	234.6500
418.05	228.0000
418.40	219.1000
418.76	230.5000
419.12	243.6500
419.48	239.2000
419.83	249.0000
420.19	226.0500
420.55	232.2000
420.90	253.8500
421.26	243.2500
421.62	237.9500
421.98	253.6000
422.33	260.9500
422.69	266.5500
423.05	269.5500
423.40	244.3000
423.76	238.7500
424.12	261.7000
424.47	262.4000
424.83	263.4500
425.19	262.8000
425.54	260.6000
425.90	273.4500
426.26	282.9500
426.61	287.3500
426.97	247.7000
427.33	280.8000
427.68	278.1500
428.04	296.4500
428.40	309.5500
428.75	317.8000
429.11	289.3000
429.47	318.9000
429.82	317.4500
430.18	311.3000
430.53	299.2000
430.89	306.1000
431.25	312.0500
431.60	321.2500
431.96	315.0000
432.31	309.7000
432.67	333.3000
433.03	337.9500
433.38	326.3000
433.74	338.2500
434.09	334.0000
434.45	324.6500
434.81	319.8500
435.16	344.6500
435.52	324.4000
435.87	315.4000
436.23	319.5500
436.58	328.6500
436.94	345.1000
437.30	345.6500
437.65	363.0000
438.01	352.6000
438.36	356.6000
438.72	352.0500
439.07	347.5000
439.43	353.2500
439.78	379.1500
440.14	398.0500
440.49	363.4000
440.85	363.1500
441.20	381.9000
441.56	376.8500
441.91	407.0500
442.27	376.5000
442.62	381.2000
442.98	392.6500
443.33	381.3500
443.69	389.5000
444.04	385.7500
444.40	370.9500
444.75	406.0500
445.11	414.1000
445.46	425.2000
445.82	421.3000
446.17	397.5500
446.53	422.4500
446.88	462.3000
447.23	393.7000
447.59	394.1000
447.94	397.9000
448.30	425.5500
448.65	415.6500
449.01	442.0000
449.36	439.8000
449.72	474.1500
450.07	490.3000
450.42	477.1000
450.78	454.3000
451.13	476.4000
451.49	458.3000
451.84	446.0000
452.19	449.4000
452.55	474.5000
452.90	479.6000
453.26	509.1000
453.61	530.3500
453.96	452.2000
454.32	500.3000
454.67	503.2000
455.02	466.3500
455.38	488.8000
455.73	487.1000
456.09	528.1000
456.44	531.2500
456.79	520.3000
457.15	518.8000
457.50	495.8000
457.85	514.9000
458.21	510.5000
458.56	535.5000
458.91	524.4000
459.27	495.9000
459.62	515.7500
459.97	518.8000
460.32	541.3000
460.68	542.3500
461.03	535.2500
461.38	550.6000
461.74	601.2500
462.09	582.6000
462.44	553.1500
462.80	550.4000
463.15	558.4500
463.50	559.1500
463.85	599.0000
464.21	579.5000
464.56	609.7000
464.91	567.1000
465.26	587.2500
465.62	587.6000
465.97	629.5000
466.32	627.0500
466.67	624.5500
467.03	627.9500
467.38	637.5500
467.73	645.9000
468.08	662.9500
468.44	669.7000
468.79	665.8500
469.14	640.3500
469.49	675.2500
469.85	694.1000
470.20	751.0000
470.55	747.9500
470.90	755.9500
471.25	718.2000
471.61	741.8500
471.96	748.6500
472.31	770.3500
472.66	774.8500
473.01	796.9500
473.36	820.3500
473.72	810.3000
474.07	837.1000
474.42	837.9000
474.77	845.7000
475.12	870.3500
475.47	895.8000
475.83	899.1000
476.18	896.9000
476.53	886.2000
476.88	935.2500
477.23	947.1500
477.58	942.5500
477.93	960.8000
478.28	954.6500
478.64	971.7500
478.99	998.6000
479.34	1012.3000
479.69	1032.3000
480.04	1053.5500
480.39	1061.3000
480.74	1040.0000
481.09	1106.4000
481.44	1108.4000
481.79	1101.1000
482.15	1114.1000
482.50	1136.3500
482.85	1136.8000
483.20	1177.7500
483.55	1176.5500
483.90	1199.9500
484.25	1189.4500
484.60	1191.1500
484.95	1221.2500
485.30	1227.6500
485.65	1245.1000
486.00	1258.9000
486.35	1242.6500
486.70	1254.0500
487.05	1302.2500
487.40	1304.6500
487.75	1315.6500
488.10	1324.1500
488.45	1316.5500
488.80	1333.0000
489.15	1361.8500
489.50	1366.9500
489.85	1371.7000
490.20	1367.8000
490.55	1396.5000
490.90	1406.6000
491.25	1415.0500
491.60	1406.3000
491.95	1411.4000
492.30	1429.0000
492.65	1446.4000
493.00	1445.4500
493.35	1451.4000
493.70	1465.8500
494.05	1475.0000
494.40	1496.4000
494.75	1501.2500
495.10	1493.5500
495.45	1501.5500
495.80	1515.3000
496.15	1530.8500
496.50	1518.5000
496.84	1524.3500
497.19	1526.2500
497.54	1546.4000
497.89	1554.2000
498.24	1550.0500
498.59	1575.6500
498.94	1561.9000
499.29	1572.5000
499.64	1582.9000
499.99	1594.2000
500.33	1603.1500
500.68	1606.7500
501.03	1611.7500
501.38	1619.3000
501.73	1636.5000
502.08	1631.1500
502.43	1652.5000
502.77	1656.7000
503.12	1665.8000
503.47	1665.8500
503.82	1684.4000
504.17	1692.9500
504.52	1701.9000
504.86	1706.6500
505.21	1736.2500
505.56	1733.0000
505.91	1739.2500
506.26	1739.9500
506.61	1763.1500
506.95	1762.3500
507.30	1771.1500
507.65	1798.8000
508.00	1793.9000
508.35	1801.9000
508.69	1806.2000
509.04	1826.7000
509.39	1817.2000
509.74	1826.8500
510.08	1836.2500
510.43	1858.2500
510.78	1864.8000
511.13	1871.9000
511.47	1882.8500
511.82	1891.2000
512.17	1888.0000
512.52	1913.6500
512.86	1928.8000
513.21	1941.1500
513.56	1946.8000
513.91	1967.8000
514.25	1964.5000
514.60	1979.0000
514.95	1982.0500
515.30	1989.5500
515.64	1990.0000
515.99	2027.1000
516.34	2032.2500
516.68	2048.8999
517.03	2052.8999
517.38	2057.9500
517.72	2087.2000
518.07	2078.8000
518.42	2090.4500
518.76	2108.5000
519.11	2115.8999
519.46	2126.3501
519.80	2120.6001
520.15	2134.0000
520.50	2154.0000
520.84	2155.5500
521.19	2170.0000
521.54	2179.1001
521.88	2169.7500
522.23	2202.8999
522.58	2194.6001
522.92	2202.0500
523.27	2220.1001
523.61	2224.2500
523.96	2222.9500
524.31	2252.8501
524.65	2262.2500
525.00	2252.1499
525.34	2237.0500
525.69	2250.2500
526.04	2275.8999
526.38	2285.8999
526.73	2288.3501
527.07	2309.1499
527.42	2304.3000
527.76	2320.8000
528.11	2330.3501
528.46	2319.3999
528.80	2321.0500
529.15	2316.0500
529.49	2315.8501
529.84	2331.2000
530.18	2342.3501
530.53	2358.8000
530.87	2353.4500
531.22	2350.5500
531.56	2357.1001
531.91	2358.1499
532.25	2360.8000
532.60	2360.9500
532.94	2371.8501
533.29	2368.0500
533.63	2365.0000
533.98	2367.3501
534.32	2384.9500
534.67	2412.0500
535.01	2417.6001
535.36	2402.8000
535.70	2424.9500
536.05	2428.3999
536.39	2443.5000
536.74	2413.5000
537.08	2399.6499
537.43	2403.2500
537.77	2431.3501
538.12	2456.5500
538.46	2453.9500
538.80	2461.2000
539.15	2439.6499
539.49	2462.1499
539.84	2488.1001
540.18	2483.5000
540.53	2473.1001
540.87	2477.8000
541.21	2505.1499
541.56	2496.6001
541.90	2514.1499
542.25	2498.9500
542.59	2494.8999
542.93	2524.8999
543.28	2512.5500
543.62	2528.0000
543.97	2534.7000
544.31	2541.8000
544.65	2546.7500
545.00	2557.8000
545.34	2564.5000
545.68	2565.8999
546.03	2555.4500
546.37	2581.3501
546.71	2582.2000
547.06	2586.8501
547.40	2593.8501
547.74	2626.1499
548.09	2611.8000
548.43	2612.0000
548.77	2624.7000
549.12	2620.2500
549.46	2613.8501
549.80	2635.5000
550.15	2656.9500
550.49	2651.3000
550.83	2657.8000
551.17	2669.5000
551.52	2664.8999
551.86	2670.6001
552.20	2677.8000
552.55	2704.7500
552.89	2701.8999
553.23	2716.9500
553.57	2724.3000
553.92	2718.3501
554.26	2738.7500
554.60	2723.8501
554.94	2732.7000
555.29	2752.2000
555.63	2759.6001
555.97	2774.6001
556.31	2766.1001
556.66	2782.3000
557.00	2773.5500
557.34	2790.5000
557.68	2817.3000
558.02	2810.2500
558.37	2818.3999
558.71	2822.2000
559.05	2813.8999
559.39	2826.8000
559.73	2851.1001
560.08	2840.4500
560.42	2858.6499
560.76	2858.8501
561.10	2867.0500
561.44	2856.8999
561.78	2885.2500
562.13	2891.3501
562.47	2874.2500
562.81	2893.8000
563.15	2894.4500
563.49	2901.1499
563.83	2921.3999
564.17	2919.2000
564.52	2917.2500
564.86	2923.2000
565.20	2929.0000
565.54	2925.5000
565.88	2930.3000
566.22	2943.8501
566.56	2931.4500
566.90	2951.0500
567.24	2959.3501
567.59	2950.5500
567.93	2960.7500
568.27	2978.1499
568.61	2990.5500
568.95	2970.8501
569.29	2965.7000
569.63	3002.6499
569.97	2994.3000
570.31	2949.7000
570.65	2980.8000
570.99	2999.5000
571.33	3005.2500
571.67	2974.6001
572.01	2994.2000
572.35	3008.6499
572.69	3012.8000
573.03	3016.3501
573.37	3010.2500
573.71	3008.0000
574.05	2989.2000
574.39	2996.1001
574.73	3014.3999
575.07	2994.3501
575.41	3011.2500
575.75	3010.2000
576.09	3039.8000
576.43	3026.2500
576.77	3021.8999
577.11	3009.6001
577.45	3028.3999
577.79	3011.0000
578.13	3032.5000
578.47	2998.1001
578.81	3000.8501
579.15	3018.5500
579.49	3052.8999
579.83	3045.3000
580.17	3050.1001
580.51	3038.1001
580.85	3045.9500
581.19	3038.7500
581.53	3020.2500
581.87	3036.8999
582.20	3041.6499
582.54	3034.3000
582.88	3036.7500
583.22	3022.2000
583.56	3013.3999
583.90	3049.1499
584.24	3048.8000
584.58	3045.1001
584.92	3058.0000
585.25	3056.7000
585.59	3042.7000
585.93	3058.6499
586.27	3070.0500
586.61	3040.6001
586.95	3064.9500
587.29	3070.3501
587.62	3051.2000
587.96	3062.5500
588.30	3069.1001
588.64	3057.8501
588.98	3064.6499
589.31	3076.2500
589.65	3061.3000
589.99	3045.8000
590.33	3074.5500
590.67	3072.5000
591.01	3072.6001
591.34	3092.8999
591.68	3088.1499
592.02	3091.8000
592.36	3084.6499
592.69	3082.1001
593.03	3094.2500
593.37	3091.7000
593.71	3090.0500
594.04	3090.6001
594.38	3092.1001
594.72	3110.2000
595.06	3098.0500
595.39	3095.4500
595.73	3112.5000
596.07	3130.2000
596.41	3118.3999
596.74	3119.2500
597.08	3125.0000
597.42	3124.7000
597.76	3107.8501
598.09	3132.6499
598.43	3109.8000
598.77	3135.2500
599.10	3150.6499
599.44	3131.7500
599.78	3132.3999
600.11	3148.8000
600.45	3152.3501
600.79	3148.2000
601.12	3139.2000
601.46	3166.0000
601.80	3166.4500
602.13	3147.8999
602.47	3169.5500
602.81	3157.0500
603.14	3158.1499
603.48	3176.1001
603.82	3170.0500
604.15	3161.8501
604.49	3171.4500
604.82	3173.7000
605.16	3176.1499
605.50	3163.8999
605.83	3200.9500
606.17	3186.7500
606.50	3189.2500
606.84	3182.5500
607.18	3188.7500
607.51	3188.1001
607.85	3193.8501
608.18	3202.3999
608.52	3197.6499
608.86	3196.5000
609.19	3220.3501
609.53	3183.5500
609.86	3223.0500
610.20	3213.8999
610.53	3198.2500
610.87	3183.5000
611.20	3236.1001
611.54	3186.2500
611.87	3209.7000
612.21	3214.2000
612.54	3198.2000
612.88	3204.5000
613.21	3213.1001
613.55	3218.4500
613.88	3189.5000
614.22	3206.7500
614.55	3195.2500
614.89	3188.0000
615.22	3189.2000
615.56	3185.1001
615.89	3203.9500
616.23	3210.3501
616.56	3176.3000
616.90	3200.5500
617.23	3185.3000
617.57	3208.7000
617.90	3198.8999
618.24	3203.3999
618.57	3197.5000
618.90	3190.8000
619.24	3186.6001
619.57	3196.1001
619.91	3217.8501
620.24	3154.6001
620.58	3189.0000
620.91	3184.8999
621.24	3192.9500
621.58	3199.2500
621.91	3175.1001
622.25	3182.8999
622.58	3186.2500
622.91	3207.8501
623.25	3166.1499
623.58	3174.8501
623.91	3172.1499
624.25	3189.4500
624.58	3187.6001
624.92	3180.3501
625.25	3176.2000
625.58	3160.7500
625.92	3190.3999
626.25	3169.0500
626.58	3194.2000
626.92	3174.0000
627.25	3176.3501
627.58	3165.5000
627.91	3172.4500
628.25	3178.1499
628.58	3177.8999
628.91	3158.8000
629.25	3172.7000
629.58	3154.3000
629.91	3161.7500
630.25	3177.9500
630.58	3159.5500
630.91	3160.3501
631.24	3159.8000
631.58	3167.1499
631.91	3177.3999
632.24	3132.0500
632.57	3144.1499
632.91	3152.3000
633.24	3134.8999
633.57	3144.6499
633.90	3138.3999
634.24	3136.8000
634.57	3136.6499
634.90	3149.8501
635.23	3106.3999
635.56	3121.3000
635.90	3119.2000
636.23	3122.3501
636.56	3116.0000
636.89	3125.7000
637.22	3119.8999
637.56	3117.3999
637.89	3090.2000
638.22	3103.8501
638.55	3119.7000
638.88	3073.9500
639.21	3088.6001
639.55	3079.3501
639.88	3089.7000
640.21	3095.8501
640.54	3089.4500
640.87	3069.3000
641.20	3072.1001
641.53	3090.0500
641.87	3076.3999
642.20	3076.0500
642.53	3068.7000
642.86	3074.3999
643.19	3069.9500
643.52	3065.7000
643.85	3063.2000
644.18	3054.2500
644.51	3058.3000
644.84	3065.3000
645.18	3042.8000
645.51	3040.7000
645.84	3047.8501
646.17	3041.4500
646.50	3049.5500
646.83	3060.5500
647.16	3022.1499
647.49	3037.2000
647.82	3040.6499
648.15	3038.1001
648.48	3042.2000
648.81	3040.4500
649.14	3026.3000
649.47	3030.4500
649.80	3016.7500
650.13	3012.5000
650.46	3021.4500
650.79	3021.7500
651.12	3037.8999
651.45	3018.8000
651.78	2998.4500
652.11	3013.8000
652.44	3002.5500
652.77	3007.5500
653.10	3020.2500
653.43	3020.1499
653.76	3007.6499
654.09	2982.6499
654.42	2999.6001
654.75	3003.3000
655.08	2977.8000
655.41	2984.4500
655.74	2960.8501
656.07	2993.8501
656.39	2984.3999
656.72	2979.9500
657.05	2972.1001
657.38	2997.8501
657.71	2996.7000
658.04	2968.0000
658.37	2972.4500
658.70	2983.4500
659.03	2969.7500
659.36	2969.3501
659.68	2974.8999
660.01	2972.5000
660.34	2975.3000
660.67	2969.7000
661.00	2980.5000
661.33	2948.6499
661.66	2948.4500
661.98	2968.2500
662.31	2959.8999
662.64	2953.5500
662.97	2941.3000
663.30	2941.0500
663.63	2946.0000
663.95	2924.6499
664.28	2932.3999
664.61	2922.2500
664.94	2928.8999
665.27	2935.4500
665.59	2923.3000
665.92	2931.5000
666.25	2903.7500
666.58	2895.6499
666.91	2940.0000
667.23	2904.6001
667.56	2898.4500
667.89	2890.8000
668.22	2903.9500
668.54	2901.3999
668.87	2907.3999
669.20	2890.2000
669.53	2895.6499
669.85	2889.9500
670.18	2877.3000
670.51	2864.0500
670.83	2858.8501
671.16	2878.8999
671.49	2878.0000
671.82	2868.5500
672.14	2849.0000
672.47	2847.8501
672.80	2847.5000
673.12	2852.8501
673.45	2864.3999
673.78	2816.3999
674.10	2847.8999
674.43	2830.0000
674.76	2820.8501
675.08	2836.0000
675.41	2801.0500
675.74	2812.2500
676.06	2814.6499
676.39	2789.5500
676.72	2798.1001
677.04	2794.6499
677.37	2795.0000
677.69	2782.0000
678.02	2771.4500
678.35	2768.7500
678.67	2735.6499
679.00	2769.1001
679.32	2761.8501
679.65	2742.0000
679.98	2754.3999
680.30	2738.1001
680.63	2727.1499
680.95	2720.7500
681.28	2731.8000
681.60	2704.9500
681.93	2705.1499
682.26	2698.0000
682.58	2700.3999
682.91	2700.1001
683.23	2680.5000
683.56	2672.1499
683.88	2683.5500
684.21	2659.3999
684.53	2672.5000
684.86	2668.9500
685.18	2651.9500
685.51	2661.4500
685.83	2645.7500
686.16	2617.5000
686.48	2616.2500
686.81	2633.0500
687.13	2623.7500
687.46	2616.9500
687.78	2627.3000
688.11	2598.8000
688.43	2587.6001
688.76	2586.8000
689.08	2581.7000
689.41	2569.8999
689.73	2562.6001
690.05	2558.2500
690.38	2556.2000
690.70	2550.9500
691.03	2535.2500
691.35	2534.3999
691.68	2502.0500
692.00	2511.7500
692.32	2534.4500
692.65	2521.6499
692.97	2514.2000
693.29	2513.4500
693.62	2489.4500
693.94	2505.4500
694.27	2476.4500
694.59	2444.4500
694.91	2467.4500
695.24	2475.0000
695.56	2444.3501
695.88	2442.4500
696.21	2409.2500
696.53	2400.3000
696.85	2427.3999
697.18	2426.8000
697.50	2411.4500
697.82	2423.3501
698.15	2414.2000
698.47	2402.4500
698.79	2407.1499
699.12	2407.0500
699.44	2366.8000
699.76	2363.4500
700.09	2371.4500
700.41	2360.5500
700.73	2346.0500
701.05	2365.7500
701.38	2347.5000
701.70	2353.2500
702.02	2349.1499
702.34	2328.7500
702.67	2337.8501
702.99	2335.8501
703.31	2312.9500
703.63	2315.7500
703.96	2307.0500
704.28	2296.6499
704.60	2279.3501
704.92	2293.3999
705.25	2277.3999
705.57	2281.2500
705.89	2275.6499
706.21	2267.3999
706.53	2263.6499
706.86	2263.1499
707.18	2255.1001
707.50	2270.4500
707.82	2239.8999
708.14	2256.6499
708.46	2260.8999
708.79	2223.1001
709.11	2251.8999
709.43	2217.1001
709.75	2214.4500
710.07	2215.6499
710.39	2223.3501
710.71	2206.2500
711.04	2196.4500
711.36	2187.4500
711.68	2191.1499
712.00	2190.0500
712.32	2188.0500
712.64	2167.6001
712.96	2165.8999
713.28	2148.0000
713.60	2165.5500
713.92	2144.3000
714.24	2151.8000
714.57	2145.8501
714.89	2138.5500
715.21	2132.8000
715.53	2118.6001
715.85	2121.2000
716.17	2125.0000
716.49	2121.6001
716.81	2113.7000
717.13	2115.8999
717.45	2098.7000
717.77	2092.7500
718.09	2081.9500
718.41	2081.7000
718.73	2075.5500
719.05	2065.9500
719.37	2040.3500
719.69	2062.0000
720.01	2057.8000
720.33	2039.4000
720.65	2033.3500
720.97	2031.1000
721.29	2013.9000
721.61	2022.4000
721.93	2018.9500
722.25	2000.6500
722.57	1996.2500
722.89	1993.3000
723.21	1999.8500
723.52	1983.8000
723.84	1968.5000
724.16	1985.1500
724.48	1977.0500
724.80	1976.1500
725.12	1966.3000
725.44	1970.0500
725.76	1957.4000
726.08	1966.4000
726.40	1948.4500
726.72	1956.3000
727.03	1964.8000
727.35	1955.1000
727.67	1939.2000
727.99	1938.5500
728.31	1936.7500
728.63	1927.1000
728.95	1936.3000
729.26	1918.5500
729.58	1914.0500
729.90	1913.0000
730.22	1890.2500
730.54	1888.3500
730.86	1903.7000
731.17	1908.6000
731.49	1886.7500
731.81	1895.6000
732.13	1892.2000
732.45	1868.2000
732.76	1865.6000
733.08	1866.3500
733.40	1867.8000
733.72	1855.7500
734.03	1852.4500
734.35	1854.5500
734.67	1864.8000
734.99	1842.8500
735.30	1844.1500
735.62	1841.2000
735.94	1835.2500
736.26	1824.7500
736.57	1814.1500
736.89	1831.0500
737.21	1806.1500
737.53	1797.4000
737.84	1799.0000
738.16	1784.7000
738.48	1780.9500
738.79	1788.7000
739.11	1772.6500
739.43	1758.2000
739.74	1757.5000
740.06	1744.8500
740.38	1739.8000
740.69	1729.7000
741.01	1729.3500
741.33	1707.9500
741.64	1712.8500
741.96	1701.4500
742.28	1703.1500
742.59	1676.0500
742.91	1680.8500
743.23	1671.2000
743.54	1677.9500
743.86	1659.3500
744.17	1655.9000
744.49	1651.3500
744.81	1645.3000
745.12	1634.8000
745.44	1621.1500
745.75	1624.2000
746.07	1615.0500
746.38	1609.6000
746.70	1601.8500
747.02	1611.4500
747.33	1593.9500
747.65	1596.6500
747.96	1590.6000
748.28	1583.0500
748.59	1578.4000
748.91	1568.0000
749.22	1578.2000
749.54	1568.1500
749.85	1570.2500
750.17	1561.1500
750.48	1551.7500
750.80	1551.6000
751.11	1549.1500
751.43	1548.3000
751.74	1547.6000
752.06	1545.5000
752.37	1535.9500
752.69	1545.1000
753.00	1529.0500
753.32	1534.5000
753.63	1529.9000
753.95	1527.8500
754.26	1513.6000
754.58	1513.5000
754.89	1515.7500
755.20	1514.5500
755.52	1510.8000
755.83	1507.0000
756.15	1502.7000
756.46	1496.0500
756.78	1494.1500
757.09	1491.8500
757.40	1492.1500
757.72	1488.9000
758.03	1483.6000
758.34	1482.0000
758.66	1492.9000
758.97	1486.6500
759.29	1471.9500
759.60	1478.1000
759.91	1462.3500
760.23	1461.2500
760.54	1469.9500
760.85	1464.1000
761.17	1456.4500
761.48	1453.9000
761.79	1433.1000
762.11	1437.2000
762.42	1434.1000
762.73	1440.5500
763.05	1437.2500
763.36	1442.3500
763.67	1439.0000
763.98	1414.5000
764.30	1395.2500
764.61	1408.9500
764.92	1410.8000
765.23	1404.7000
765.55	1396.2000
765.86	1388.5500
766.17	1399.0500
766.48	1390.0000
766.80	1364.0500
767.11	1382.3500
767.42	1356.0500
767.73	1352.5000
768.05	1363.1000
768.36	1365.6000
768.67	1368.9500
768.98	1353.4500
769.29	1366.2000
769.61	1346.5500
769.92	1322.4500
770.23	1331.2000
770.54	1302.9500
770.85	1320.3000
771.17	1317.4500
771.48	1317.4500
771.79	1313.7000
772.10	1301.4500
772.41	1305.6500
772.72	1286.9500
773.03	1275.4000
773.35	1272.6000
773.66	1257.0000
773.97	1262.8500
774.28	1257.0500
774.59	1244.8500
774.90	1249.6000
775.21	1258.4000
775.52	1248.6000
775.83	1242.8500
776.15	1226.9500
776.46	1217.1000
776.77	1211.9500
777.08	1213.4000
777.39	1214.3500
777.70	1202.7000
778.01	1201.6500
778.32	1202.5000
778.63	1207.0500
778.94	1192.2500
779.25	1186.8000
779.56	1175.8500
779.87	1166.1500
780.18	1156.0500
780.49	1152.9500
780.80	1155.5000
781.11	1143.3000
781.42	1135.2500
781.73	1134.9500
782.04	1120.4000
782.35	1108.7500
782.66	1111.4500
782.97	1107.5500
783.28	1114.7000
783.59	1108.0500
783.90	1099.6500
784.21	1091.2500
784.52	1079.0000
784.83	1075.6000
785.14	1070.3500
785.45	1065.0500
785.76	1055.5000
786.06	1056.7500
786.37	1064.6000
786.68	1053.0500
786.99	1046.8000
787.30	1040.6000
787.61	1043.7500
787.92	1030.4000
788.23	1018.4000
788.54	1028.2500
788.84	1018.7500
789.15	1020.3000
789.46	1014.4500
789.77	999.4500
790.08	1000.7000
790.39	988.4000
790.70	994.6500
791.00	996.7000
791.31	969.9000
791.62	978.0000
791.93	969.4000
792.24	971.1000
792.54	960.1500
792.85	947.2000
793.16	950.7500
793.47	939.7500
793.78	944.9000
794.08	934.9500
794.39	927.1500
794.70	925.8000
795.01	919.6000
795.31	915.9500
795.62	905.4000
795.93	910.7000
796.24	911.5000
796.54	901.0500
796.85	898.3500
797.16	885.0000
797.47	877.4000
797.77	878.4000
798.08	875.0000
798.39	877.6500
798.69	875.4500
799.00	862.8500
799.31	863.5000
799.62	854.6000
799.92	850.8000
800.23	845.6500
800.54	847.1000
800.84	837.7500
801.15	832.1000
801.46	834.4500
801.76	828.7000
802.07	820.6000
802.37	813.2500
802.68	811.8500
802.99	814.5000
803.29	800.7500
803.60	796.9500
803.91	790.3000
804.21	793.3000
804.52	792.4500
804.82	783.7500
805.13	789.4500
805.44	781.1500
805.74	777.5000
806.05	778.0500
806.35	769.8500
806.66	766.4500
806.96	767.0500
807.27	753.4500
807.57	753.0000
807.88	752.7500
808.19	743.7500
808.49	747.8000
808.80	736.4500
809.10	734.5000
809.41	741.1000
809.71	724.8000
810.02	726.8500
810.32	719.0000
810.63	720.8500
810.93	721.1500
811.24	716.0000
811.54	718.4000
811.85	710.5500
812.15	705.9000
812.45	698.4500
812.76	696.0500
813.06	688.6000
813.37	689.7500
813.67	692.4500
813.98	681.4000
814.28	673.9500
814.58	678.0000
814.89	668.5500
815.19	668.7500
815.50	663.1500
815.80	659.8500
816.11	656.9000
816.41	659.1500
816.71	654.4500
817.02	653.9000
817.32	651.9500
817.62	640.1000
817.93	647.4500
818.23	635.9000
818.53	639.7500
818.84	641.6000
819.14	631.2500
819.44	630.9500
819.75	627.7000
820.05	617.6500
820.35	617.2000
820.66	613.7000
820.96	615.0000
821.26	611.1500
821.57	610.2500
821.87	603.8000
822.17	604.0000
822.48	604.4000
822.78	601.9500
823.08	592.6500
823.38	596.8500
823.69	587.3500
823.99	593.1000
824.29	587.4500
824.59	576.1500
824.90	583.5000
825.20	578.4500
825.50	572.6000
825.80	573.5500
826.10	575.8500
826.41	569.7500
826.71	564.0500
827.01	563.1000
827.31	567.5500
827.61	562.3000
827.92	561.4500
828.22	558.2000
828.52	554.9500
828.82	552.8000
829.12	548.9000
829.42	543.8000
829.73	542.5000
830.03	542.4000
830.33	537.6500
830.63	532.0500
830.93	534.1000
831.23	527.3000
831.53	529.6000
831.83	528.9500
832.14	520.9000
832.44	523.3000
832.74	520.5000
833.04	518.9000
833.34	520.0500
833.64	513.4000
833.94	509.0500
834.24	509.6500
834.54	510.3500
834.84	509.5000
835.14	504.3000
835.44	503.3000
835.74	500.7500
836.04	499.0000
836.34	498.9500
836.64	498.7500
836.95	493.1500
837.25	489.3500
837.55	486.7500
837.85	487.4000
838.15	489.9500
838.45	484.4000
838.74	480.4500
839.04	474.4000
839.34	476.8000
839.64	471.3500
839.94	467.7000
840.24	467.7000
840.54	470.4000
840.84	468.2500
841.14	465.5000
841.44	466.0000
841.74	462.7500
842.04	456.8000
842.34	456.2500
842.64	454.1000
842.94	455.4500
843.24	451.7000
843.53	451.2500
843.83	451.1000
844.13	448.1500
844.43	443.6500
844.73	446.1500
845.03	442.8000
845.33	436.8000
845.63	438.6500
845.92	436.2500
846.22	434.0500
846.52	432.2000
846.82	431.8000
847.12	425.9500
847.42	428.4000
847.71	423.8000
848.01	426.0500
848.31	418.4000
848.61	418.6500
848.91	415.2000
849.20	419.1500
849.50	416.4500
849.80	414.2500
850.10	412.5500
850.39	410.5500
850.69	408.0500
850.99	407.0000
851.29	404.4000
851.59	402.9500
851.88	402.6500
852.18	400.9000
852.48	400.4000
852.77	394.1000
853.07	397.7000
853.37	391.0000
853.67	391.4000
853.96	390.3500
854.26	390.0000
854.56	385.6000
854.85	382.9500
855.15	383.2500
855.45	383.4500
855.74	379.8000
856.04	377.0500
856.34	375.9500
856.63	375.3500
856.93	367.1000
857.23	373.7000
857.52	368.2500
857.82	365.7000
858.11	368.1000
858.41	365.2500
858.71	363.6000
859.00	361.0000
859.30	360.0000
859.59	359.5000
859.89	353.0500
860.19	350.7000
860.48	350.9000
860.78	352.2000
861.07	351.5000
861.37	348.5500
861.66	351.0000
861.96	347.0000
862.26	342.6500
862.55	342.2500
862.85	339.9000
863.14	339.5000
863.44	338.1000
863.73	334.1500
864.03	334.3500
864.32	333.8000
864.62	333.7500
864.91	328.7000
865.21	326.3000
865.50	326.2500
865.80	326.2000
866.09	324.8500
866.39	322.6000
866.68	324.5500
866.97	318.0000
867.27	317.5000
867.56	315.0500
867.86	312.8500
868.15	311.8500
868.45	308.4000
868.74	308.9000
869.03	309.2500
869.33	309.0500
869.62	304.3000
869.92	302.9500
870.21	299.8500
870.50	299.1500
870.80	297.7500
871.09	298.6000
871.39	295.0000
871.68	291.2500
871.97	289.0000
872.27	291.4500
872.56	285.3000
872.85	286.0500
873.15	281.7000
873.44	281.6500
873.73	281.3500
874.03	279.6500
874.32	276.7500
874.61	276.2500
874.90	276.9500
875.20	273.5000
875.49	272.1500
875.78	269.9500
>>>>>End Spectral Data<<<<<
