OOIBase32 Version 1.0.0.8 Data File
++++++++++++++++++++++++++++++++++++
Date: Monday, January 21, 1980, 02:21:21
User: Valued Ocean Optics Customer
Spectrometer Serial Number: Unknown
Spectrometer Channel: Master
Integration Time (msec): 7
Spectra Averaged: 20
Boxcar Smoothing: 0
Correct for Electrical Dark: Disabled
Time Normalized: Disabled
Dual-beam Reference: Disabled
Reference Channel: Master
>>>>>Begin Spectral Data<<<<<
179.00	0.0000
179.38	0.0000
179.75	72.4500
180.13	73.3500
180.51	73.0000
180.88	75.3000
181.26	73.1000
181.64	73.5000
182.02	75.5500
182.39	74.0500
182.77	74.0500
183.15	72.3500
183.52	73.5000
183.90	74.4500
184.28	74.7000
184.65	73.5000
185.03	73.5000
185.41	74.5000
185.78	73.8000
186.16	73.9500
186.53	73.2500
186.91	74.5500
187.29	74.0500
187.66	74.5500
188.04	75.4500
188.42	76.9000
188.79	77.0500
189.17	77.2000
189.55	78.2500
189.92	78.1000
190.30	78.6500
190.67	78.0000
191.05	78.1000
191.43	78.2500
191.80	77.1000
192.18	77.5000
192.56	77.7500
192.93	76.7000
193.31	78.6500
193.68	78.0000
194.06	77.6000
194.44	78.1000
194.81	78.0000
195.19	78.4000
195.56	78.4500
195.94	79.0500
196.32	77.3000
196.69	78.0000
197.07	78.1500
197.44	78.5500
197.82	77.0500
198.19	77.6500
198.57	77.8000
198.95	78.8500
199.32	78.6500
199.70	78.6500
200.07	78.0000
200.45	79.1000
200.82	77.6500
201.20	78.1000
201.57	79.0000
201.95	78.4500
202.33	77.7000
202.70	77.3000
203.08	78.5000
203.45	78.2000
203.83	77.8500
204.20	78.3000
204.58	79.2500
204.95	77.7000
205.33	78.0000
205.70	77.9500
206.08	78.2000
206.45	78.0500
206.83	77.9500
207.20	78.5000
207.58	78.4500
207.95	78.6000
208.33	78.4000
208.70	79.2500
209.08	77.9000
209.45	77.6500
209.83	79.9000
210.20	79.6500
210.58	77.2500
210.95	78.4000
211.33	79.5500
211.70	78.2000
212.08	78.7500
212.45	78.3000
212.83	78.3500
213.20	77.7500
213.58	77.3500
213.95	77.8000
214.33	78.6000
214.70	78.1500
215.07	78.3000
215.45	78.6000
215.82	78.0500
216.20	79.3000
216.57	79.0500
216.95	78.5000
217.32	79.2000
217.70	79.1500
218.07	78.7000
218.44	78.1000
218.82	77.2500
219.19	77.5000
219.57	78.3000
219.94	78.3500
220.32	78.2000
220.69	80.1000
221.06	78.4000
221.44	78.8000
221.81	78.6500
222.19	79.3500
222.56	78.7500
222.93	79.6500
223.31	78.1500
223.68	78.0000
224.06	79.5000
224.43	78.7500
224.80	78.5500
225.18	77.7500
225.55	79.2000
225.92	78.1000
226.30	79.0000
226.67	79.5000
227.05	78.9500
227.42	79.1000
227.79	79.3500
228.17	79.0500
228.54	78.1500
228.91	77.6500
229.29	79.2500
229.66	78.9500
230.03	78.3500
230.41	79.6500
230.78	78.4500
231.15	78.8000
231.53	79.3500
231.90	80.2000
232.27	79.4000
232.65	78.0000
233.02	78.7500
233.39	79.6000
233.77	78.6500
234.14	78.8500
234.51	78.8500
234.89	78.2000
235.26	78.8500
235.63	78.5000
236.01	78.3000
236.38	78.8000
236.75	78.2500
237.12	78.7500
237.50	78.4500
237.87	78.3000
238.24	79.5000
238.62	79.0000
238.99	79.5000
239.36	79.5500
239.73	78.4500
240.11	79.4500
240.48	79.5500
240.85	79.0500
241.23	79.5000
241.60	79.4500
241.97	79.4000
242.34	79.4000
242.72	79.6500
243.09	78.1000
243.46	79.6000
243.83	79.0500
244.21	79.6000
244.58	78.3500
244.95	78.6500
245.32	79.1000
245.70	79.2000
246.07	79.6500
246.44	79.8500
246.81	79.5500
247.18	78.7500
247.56	79.1000
247.93	78.9500
248.30	79.4000
248.67	79.1000
249.04	79.1000
249.42	79.0500
249.79	79.2000
250.16	78.6000
250.53	80.0500
250.90	77.5000
251.28	79.2000
251.65	77.9000
252.02	78.1500
252.39	79.1500
252.76	80.1000
253.14	78.7500
253.51	78.5000
253.88	79.0000
254.25	80.3500
254.62	79.4500
254.99	79.0500
255.37	79.8000
255.74	80.0500
256.11	79.2000
256.48	79.8000
256.85	79.5500
257.22	79.7500
257.59	79.6500
257.97	78.4000
258.34	78.7500
258.71	79.1500
259.08	79.4000
259.45	79.8500
259.82	79.5000
260.19	79.9500
260.56	80.5500
260.94	79.3500
261.31	79.0000
261.68	78.8000
262.05	78.3500
262.42	80.5000
262.79	79.3000
263.16	80.0000
263.53	79.4000
263.90	79.2000
264.28	78.9500
264.65	79.5500
265.02	79.1000
265.39	79.2500
265.76	79.7500
266.13	79.9000
266.50	79.6500
266.87	79.8500
267.24	79.5500
267.61	78.8000
267.98	79.3500
268.35	80.5500
268.72	79.2000
269.09	78.8000
269.46	80.2000
269.84	80.3000
270.21	79.7000
270.58	79.5000
270.95	79.1000
271.32	79.3000
271.69	78.8500
272.06	80.1500
272.43	79.8000
272.80	80.2500
273.17	79.9000
273.54	79.3000
273.91	79.2000
274.28	78.5000
274.65	78.5500
275.02	79.6000
275.39	78.6500
275.76	80.4000
276.13	81.4000
276.50	80.0000
276.87	78.7000
277.24	79.6000
277.61	80.5500
277.98	80.0500
278.35	79.5000
278.72	79.8500
279.09	80.0500
279.46	80.1500
279.83	80.9000
280.20	78.2500
280.57	78.6000
280.94	80.6000
281.31	78.8500
281.67	79.4500
282.04	79.0500
282.41	80.8000
282.78	79.2000
283.15	80.2000
283.52	79.7500
283.89	80.5500
284.26	79.0500
284.63	80.3500
285.00	80.6500
285.37	79.2000
285.74	80.5000
286.11	80.0000
286.48	79.3500
286.85	79.2000
287.21	79.5000
287.58	79.4500
287.95	80.5000
288.32	79.3000
288.69	79.2500
289.06	80.1500
289.43	81.0000
289.80	80.5500
290.17	80.4000
290.54	79.7000
290.90	80.6500
291.27	79.5000
291.64	80.4500
292.01	80.4000
292.38	80.1500
292.75	80.1000
293.12	80.3500
293.48	80.3000
293.85	79.1500
294.22	80.4000
294.59	80.2000
294.96	79.5500
295.33	80.4500
295.70	79.7000
296.06	80.1000
296.43	80.2500
296.80	80.0500
297.17	79.6000
297.54	79.4000
297.91	80.1500
298.27	79.8000
298.64	80.8500
299.01	80.1000
299.38	80.6500
299.75	80.9000
300.11	80.4000
300.48	79.5000
300.85	80.5000
301.22	79.9500
301.59	79.8000
301.95	80.7000
302.32	80.7500
302.69	80.7000
303.06	80.8000
303.43	80.4000
303.79	81.2000
304.16	79.6500
304.53	80.5500
304.90	81.3000
305.26	79.9500
305.63	79.8500
306.00	80.4500
306.37	80.7000
306.73	80.0000
307.10	79.9000
307.47	80.6500
307.84	80.8500
308.20	80.3500
308.57	80.8000
308.94	80.5500
309.31	81.0500
309.67	80.5000
310.04	80.5500
310.41	80.2000
310.77	80.9500
311.14	80.4000
311.51	79.9000
311.88	80.2000
312.24	79.7000
312.61	80.0500
312.98	80.0500
313.34	80.0500
313.71	79.9500
314.08	81.1500
314.44	81.0500
314.81	81.8500
315.18	80.3000
315.55	80.4500
315.91	80.6000
316.28	81.9500
316.65	80.3000
317.01	80.7000
317.38	81.9500
317.75	80.6500
318.11	80.8000
318.48	80.8500
318.84	80.4000
319.21	80.6500
319.58	80.4500
319.94	81.5500
320.31	80.1000
320.68	81.6500
321.04	80.8500
321.41	81.5000
321.78	82.2000
322.14	81.1000
322.51	81.4000
322.87	80.4500
323.24	80.1500
323.61	81.6500
323.97	80.8500
324.34	81.4000
324.70	81.1000
325.07	82.4000
325.44	81.5500
325.80	81.2500
326.17	82.2500
326.53	82.5000
326.90	82.0000
327.27	81.4500
327.63	81.7500
328.00	82.4000
328.36	81.7500
328.73	81.2500
329.09	81.3000
329.46	82.5000
329.83	81.3000
330.19	81.7000
330.56	82.2000
330.92	81.9000
331.29	81.4000
331.65	81.7000
332.02	81.2000
332.38	81.8000
332.75	81.6500
333.11	81.1000
333.48	80.6500
333.84	82.2000
334.21	83.1000
334.58	82.3500
334.94	82.5000
335.31	81.6000
335.67	83.0000
336.04	82.2500
336.40	82.9500
336.77	81.6000
337.13	80.8500
337.50	81.8500
337.86	81.7000
338.22	82.2000
338.59	84.1500
338.95	82.4000
339.32	83.0500
339.68	82.3500
340.05	81.7000
340.41	81.9000
340.78	82.1500
341.14	83.2000
341.51	81.9000
341.87	81.3500
342.24	83.2000
342.60	82.7000
342.96	82.9500
343.33	82.9500
343.69	83.1000
344.06	83.0000
344.42	84.3500
344.79	82.5000
345.15	83.3000
345.51	84.1000
345.88	84.2000
346.24	84.3000
346.61	83.6000
346.97	84.2000
347.34	85.2000
347.70	84.7000
348.06	84.6500
348.43	84.8500
348.79	84.7500
349.16	84.6500
349.52	83.2500
349.88	84.1500
350.25	84.7000
350.61	84.8000
350.97	85.0500
351.34	85.6500
351.70	84.5000
352.07	84.9000
352.43	84.9000
352.79	86.4500
353.16	86.3000
353.52	85.5500
353.88	86.5000
354.25	86.5000
354.61	86.4000
354.97	85.2000
355.34	85.2000
355.70	86.8000
356.06	86.3500
356.43	87.7500
356.79	87.2500
357.15	87.4500
357.52	87.4500
357.88	87.7000
358.24	87.6500
358.60	86.9500
358.97	87.9500
359.33	87.8500
359.69	88.4500
360.06	88.4500
360.42	89.0000
360.78	89.1000
361.14	89.4000
361.51	89.8500
361.87	89.4000
362.23	89.6500
362.60	89.3500
362.96	90.3500
363.32	90.6500
363.68	91.2000
364.05	92.3500
364.41	91.4000
364.77	91.8500
365.13	93.1000
365.50	92.5000
365.86	93.5500
366.22	91.9000
366.58	91.7000
366.95	92.9000
367.31	93.5500
367.67	93.4500
368.03	93.6500
368.39	94.7500
368.76	95.1500
369.12	95.3500
369.48	95.9500
369.84	95.5000
370.20	97.4500
370.57	95.6000
370.93	97.1000
371.29	96.5000
371.65	98.4000
372.01	98.2000
372.38	98.9500
372.74	98.2000
373.10	99.0000
373.46	100.1000
373.82	100.2000
374.18	100.6000
374.55	100.5000
374.91	101.0000
375.27	101.2000
375.63	101.5000
375.99	101.6000
376.35	103.3500
376.71	101.9000
377.08	104.2500
377.44	105.2000
377.80	105.7000
378.16	105.3500
378.52	106.3500
378.88	108.2500
379.24	108.6500
379.60	110.3500
379.97	110.5500
380.33	112.5000
380.69	109.7000
381.05	112.2000
381.41	113.7500
381.77	113.4000
382.13	116.3500
382.49	116.6000
382.85	115.7000
383.21	118.7000
383.57	115.6000
383.94	120.9500
384.30	122.4500
384.66	120.7000
385.02	119.4500
385.38	122.2000
385.74	123.4500
386.10	126.5000
386.46	128.7000
386.82	127.8500
387.18	126.4500
387.54	127.3000
387.90	128.8500
388.26	132.1500
388.62	134.0500
388.98	131.5500
389.34	134.1000
389.70	134.5000
390.06	130.5500
390.42	132.8000
390.78	139.3500
391.14	142.5500
391.50	139.9000
391.86	142.6500
392.22	145.8500
392.58	144.5000
392.94	137.3500
393.30	142.4500
393.66	145.8500
394.02	146.3000
394.38	142.2500
394.74	148.2000
395.10	147.2500
395.46	153.2000
395.82	150.6500
396.18	151.0000
396.54	158.3000
396.90	160.2000
397.26	158.9000
397.62	158.4000
397.98	165.9500
398.34	158.2000
398.70	159.5000
399.05	157.2000
399.41	156.9500
399.77	162.6000
400.13	167.5000
400.49	169.7500
400.85	174.5500
401.21	166.0500
401.57	176.4500
401.93	174.9500
402.29	172.2000
402.65	176.8000
403.00	181.9000
403.36	183.7000
403.72	180.1500
404.08	192.0000
404.44	181.5500
404.80	184.6000
405.16	192.1000
405.52	199.5500
405.87	198.7000
406.23	200.4500
406.59	190.6500
406.95	194.6500
407.31	198.3500
407.67	199.9000
408.03	200.3000
408.38	207.1500
408.74	217.1000
409.10	216.7000
409.46	207.8000
409.82	215.9000
410.17	214.9500
410.53	209.3000
410.89	217.1500
411.25	201.5500
411.61	213.8500
411.97	224.9500
412.32	222.8500
412.68	229.2500
413.04	222.7500
413.40	206.3500
413.75	221.9000
414.11	227.9500
414.47	227.0000
414.83	243.4500
415.19	234.5000
415.54	223.7500
415.90	240.8000
416.26	236.7500
416.62	247.2000
416.97	231.6500
417.33	246.7000
417.69	251.8000
418.05	245.8500
418.40	235.8500
418.76	246.1500
419.12	261.4000
419.48	258.8000
419.83	271.6000
420.19	244.7500
420.55	252.7000
420.90	277.0500
421.26	262.1500
421.62	256.0000
421.98	274.2000
422.33	284.7000
422.69	287.1500
423.05	291.1500
423.40	263.5500
423.76	260.4500
424.12	288.6000
424.47	286.5000
424.83	285.0500
425.19	285.7500
425.54	283.9000
425.90	296.2500
426.26	310.9500
426.61	312.3500
426.97	268.0500
427.33	305.2000
427.68	302.4500
428.04	326.0000
428.40	339.2500
428.75	346.4500
429.11	314.8500
429.47	348.9000
429.82	344.9500
430.18	342.4000
430.53	329.8500
430.89	335.4500
431.25	343.4500
431.60	353.9000
431.96	344.4000
432.31	338.7000
432.67	366.8500
433.03	373.1500
433.38	361.8000
433.74	373.2000
434.09	370.0000
434.45	357.7500
434.81	352.3500
435.16	378.5500
435.52	355.1500
435.87	347.1000
436.23	353.2000
436.58	363.4000
436.94	379.7500
437.30	382.9500
437.65	401.6000
438.01	391.6000
438.36	394.2500
438.72	391.0500
439.07	381.4500
439.43	390.7000
439.78	418.6500
440.14	439.7000
440.49	400.4500
440.85	405.0000
441.20	423.2500
441.56	419.2000
441.91	451.8500
442.27	418.1500
442.62	421.0000
442.98	433.4500
443.33	427.2000
443.69	435.6500
444.04	427.1000
444.40	411.0500
444.75	450.3000
445.11	460.1500
445.46	473.1000
445.82	469.7500
446.17	442.3000
446.53	470.0000
446.88	516.4500
447.23	437.1500
447.59	440.3500
447.94	439.7500
448.30	474.0000
448.65	458.8500
449.01	490.4000
449.36	491.0000
449.72	527.2000
450.07	547.9500
450.42	531.8500
450.78	507.6500
451.13	532.6000
451.49	512.2000
451.84	497.5000
452.19	503.2500
452.55	531.8000
452.90	534.0000
453.26	572.4000
453.61	593.2000
453.96	503.4500
454.32	559.5000
454.67	562.4000
455.02	522.5000
455.38	549.8000
455.73	546.7500
456.09	596.9500
456.44	597.0500
456.79	587.5500
457.15	586.5000
457.50	561.0500
457.85	580.2500
458.21	577.2000
458.56	602.0000
458.91	592.1500
459.27	557.1500
459.62	581.6500
459.97	593.0500
460.32	612.3000
460.68	613.0500
461.03	606.7000
461.38	623.4500
461.74	684.5500
462.09	661.3000
462.44	631.5000
462.80	627.6500
463.15	636.6500
463.50	637.3500
463.85	680.3500
464.21	659.2500
464.56	694.1500
464.91	645.6000
465.26	669.4000
465.62	673.7000
465.97	719.3000
466.32	716.0500
466.67	717.3000
467.03	722.2500
467.38	734.6000
467.73	739.4000
468.08	765.6000
468.44	771.4500
468.79	771.1500
469.14	730.1500
469.49	781.8500
469.85	795.4000
470.20	864.9000
470.55	867.8500
470.90	869.7500
471.25	827.9000
471.61	861.0500
471.96	867.0500
472.31	896.3000
472.66	896.9500
473.01	918.9500
473.36	950.1500
473.72	937.6500
474.07	968.5500
474.42	972.9000
474.77	977.8500
475.12	1004.1500
475.47	1034.5000
475.83	1043.2000
476.18	1042.7000
476.53	1030.6500
476.88	1088.7500
477.23	1098.5000
477.58	1094.4000
477.93	1116.5000
478.28	1108.0500
478.64	1131.8000
478.99	1163.2500
479.34	1177.6000
479.69	1202.1500
480.04	1227.3500
480.39	1234.5500
480.74	1214.9000
481.09	1287.6000
481.44	1295.0000
481.79	1286.7500
482.15	1297.6500
482.50	1327.7500
482.85	1328.1500
483.20	1372.5500
483.55	1372.9000
483.90	1403.1500
484.25	1400.2000
484.60	1390.6500
484.95	1425.5000
485.30	1437.4500
485.65	1455.8000
486.00	1473.0000
486.35	1453.4000
486.70	1471.4000
487.05	1527.2000
487.40	1528.2000
487.75	1543.0000
488.10	1555.0500
488.45	1540.6000
488.80	1560.2500
489.15	1592.8000
489.50	1601.7500
489.85	1614.9500
490.20	1611.8500
490.55	1638.4500
490.90	1646.8500
491.25	1655.6000
491.60	1649.8500
491.95	1654.8000
492.30	1679.9000
492.65	1697.8000
493.00	1695.1500
493.35	1700.3000
493.70	1720.5500
494.05	1730.8000
494.40	1763.4000
494.75	1762.6000
495.10	1751.5000
495.45	1762.1500
495.80	1780.3000
496.15	1793.6000
496.50	1782.6000
496.84	1791.0000
497.19	1798.8500
497.54	1822.7500
497.89	1826.7500
498.24	1828.4000
498.59	1856.9500
498.94	1843.2500
499.29	1846.9500
499.64	1857.4500
499.99	1875.5500
500.33	1889.8500
500.68	1889.7000
501.03	1899.5500
501.38	1909.3000
501.73	1929.7500
502.08	1925.3500
502.43	1947.5000
502.77	1955.5000
503.12	1963.4500
503.47	1968.1500
503.82	1980.6500
504.17	1994.6500
504.52	2015.9500
504.86	2020.2500
505.21	2054.6499
505.56	2038.2000
505.91	2049.2000
506.26	2051.3501
506.61	2081.2500
506.95	2084.3501
507.30	2092.5500
507.65	2121.1499
508.00	2114.6499
508.35	2126.0000
508.69	2135.9500
509.04	2154.0500
509.39	2157.7500
509.74	2160.6499
510.08	2170.3000
510.43	2195.2000
510.78	2202.8999
511.13	2217.1001
511.47	2227.7500
511.82	2246.1499
512.17	2240.2500
512.52	2265.3999
512.86	2284.2000
513.21	2296.7500
513.56	2304.6499
513.91	2320.9500
514.25	2327.2500
514.60	2344.7000
514.95	2354.1499
515.30	2356.7500
515.64	2358.6001
515.99	2404.1499
516.34	2404.9500
516.68	2419.1001
517.03	2430.5500
517.38	2437.2500
517.72	2480.1499
518.07	2469.0000
518.42	2473.6499
518.76	2501.3999
519.11	2510.8999
519.46	2532.3000
519.80	2514.6001
520.15	2533.8999
520.50	2557.7500
520.84	2560.6001
521.19	2575.2000
521.54	2585.3501
521.88	2576.1001
522.23	2608.3501
522.58	2606.6001
522.92	2616.6499
523.27	2634.7000
523.61	2637.2000
523.96	2642.8000
524.31	2683.8999
524.65	2692.0000
525.00	2691.3999
525.34	2663.9500
525.69	2675.2000
526.04	2715.2000
526.38	2719.7500
526.73	2718.5000
527.07	2742.6499
527.42	2738.3501
527.76	2757.9500
528.11	2771.4500
528.46	2764.8000
528.80	2769.5000
529.15	2753.7000
529.49	2754.5500
529.84	2776.1001
530.18	2784.8501
530.53	2818.2000
530.87	2806.0500
531.22	2798.3000
531.56	2808.5000
531.91	2820.1001
532.25	2812.5000
532.60	2814.9500
532.94	2828.8999
533.29	2820.0000
533.63	2817.1001
533.98	2818.2500
534.32	2842.5500
534.67	2877.3501
535.01	2878.2000
535.36	2860.7000
535.70	2893.1499
536.05	2906.7500
536.39	2919.4500
536.74	2889.6001
537.08	2874.7500
537.43	2874.5000
537.77	2910.0000
538.12	2932.5000
538.46	2929.5000
538.80	2945.8501
539.15	2921.5000
539.49	2946.1499
539.84	2973.7500
540.18	2969.7500
540.53	2959.8000
540.87	2956.3501
541.21	2993.5500
541.56	2991.2500
541.90	3003.0500
542.25	2988.0000
542.59	2984.1499
542.93	3021.8999
543.28	3002.7500
543.62	3026.0500
543.97	3029.8000
544.31	3037.6499
544.65	3048.8000
545.00	3063.3501
545.34	3069.8999
545.68	3068.8000
546.03	3050.9500
546.37	3085.3999
546.71	3089.8999
547.06	3101.8000
547.40	3105.8999
547.74	3145.7000
548.09	3126.3501
548.43	3131.1499
548.77	3141.6499
549.12	3133.7500
549.46	3135.3999
549.80	3163.2500
550.15	3186.2500
550.49	3178.4500
550.83	3187.5000
551.17	3203.1001
551.52	3194.0500
551.86	3199.8501
552.20	3210.9500
552.55	3240.6001
552.89	3239.7500
553.23	3256.1001
553.57	3265.1499
553.92	3261.3000
554.26	3280.8000
554.60	3264.5500
554.94	3279.0000
555.29	3305.2500
555.63	3305.0000
555.97	3324.1001
556.31	3322.8501
556.66	3338.8999
557.00	3331.0500
557.34	3353.0500
557.68	3372.6001
558.02	3369.7500
558.37	3380.0000
558.71	3380.5000
559.05	3378.1499
559.39	3397.5000
559.73	3420.3501
560.08	3407.9500
560.42	3431.8999
560.76	3429.0500
561.10	3437.9500
561.44	3428.8000
561.78	3457.1499
562.13	3467.0000
562.47	3449.0000
562.81	3483.3999
563.15	3476.7500
563.49	3487.1499
563.83	3506.1499
564.17	3503.4500
564.52	3507.5000
564.86	3523.3999
565.20	3517.7000
565.54	3523.1001
565.88	3526.5000
566.22	3541.3501
566.56	3519.9500
566.90	3546.1001
567.24	3557.6001
567.59	3543.6499
567.93	3554.3000
568.27	3575.1499
568.61	3593.8000
568.95	3572.5500
569.29	3569.5500
569.63	3615.1001
569.97	3599.3999
570.31	3550.0500
570.65	3577.2000
570.99	3594.8000
571.33	3607.6499
571.67	3585.3000
572.01	3590.5000
572.35	3618.3501
572.69	3629.7000
573.03	3627.5500
573.37	3622.2000
573.71	3615.2500
574.05	3594.8501
574.39	3606.5000
574.73	3638.3000
575.07	3612.0000
575.41	3625.7500
575.75	3642.1499
576.09	3663.8000
576.43	3645.2500
576.77	3643.7500
577.11	3624.1001
577.45	3643.2500
577.79	3629.3999
578.13	3657.9500
578.47	3622.0500
578.81	3624.0500
579.15	3633.6499
579.49	3669.5000
579.83	3667.2000
580.17	3674.0000
580.51	3659.9500
580.85	3672.3501
581.19	3670.2500
581.53	3647.2500
581.87	3654.0500
582.20	3666.8999
582.54	3665.3000
582.88	3666.8999
583.22	3645.8000
583.56	3639.2500
583.90	3674.8501
584.24	3672.4500
584.58	3667.3999
584.92	3687.6001
585.25	3693.8501
585.59	3678.5500
585.93	3693.3999
586.27	3716.2000
586.61	3665.3000
586.95	3696.8999
587.29	3713.3501
587.62	3687.3999
587.96	3698.7000
588.30	3711.1001
588.64	3697.6001
588.98	3699.1001
589.31	3714.8000
589.65	3702.6001
589.99	3682.7000
590.33	3714.2000
590.67	3717.0000
591.01	3714.8000
591.34	3735.4500
591.68	3731.2000
592.02	3736.4500
592.36	3732.7500
592.69	3721.8501
593.03	3735.8000
593.37	3741.3999
593.71	3744.5000
594.04	3745.5500
594.38	3740.5500
594.72	3763.2000
595.06	3744.6499
595.39	3749.3000
595.73	3759.3999
596.07	3788.4500
596.41	3770.5000
596.74	3772.0000
597.08	3772.8999
597.42	3781.3000
597.76	3761.6499
598.09	3791.6499
598.43	3767.8000
598.77	3800.2500
599.10	3811.8000
599.44	3791.6499
599.78	3792.7000
600.11	3807.2000
600.45	3818.6001
600.79	3802.7000
601.12	3799.7000
601.46	3831.0000
601.80	3835.8999
602.13	3807.9500
602.47	3839.0000
602.81	3819.4500
603.14	3821.9500
603.48	3847.8000
603.82	3840.6499
604.15	3833.7500
604.49	3846.7500
604.82	3845.5500
605.16	3851.4500
605.50	3832.8501
605.83	3874.7500
606.17	3865.0000
606.50	3865.2500
606.84	3850.7000
607.18	3866.1001
607.51	3864.3501
607.85	3872.5500
608.18	3877.7000
608.52	3880.0500
608.86	3872.5000
609.19	3890.2000
609.53	3860.6499
609.86	3903.1001
610.20	3897.7000
610.53	3882.6499
610.87	3860.4500
611.20	3925.3000
611.54	3871.0000
611.87	3885.4500
612.21	3901.7000
612.54	3883.9500
612.88	3890.9500
613.21	3898.2500
613.55	3904.1499
613.88	3873.0000
614.22	3892.1499
614.55	3872.8999
614.89	3865.6001
615.22	3871.3501
615.56	3876.5000
615.89	3889.6499
616.23	3896.8501
616.56	3856.5500
616.90	3889.5500
617.23	3871.5500
617.57	3899.7000
617.90	3890.2000
618.24	3892.8501
618.57	3884.6499
618.90	3880.3000
619.24	3871.5000
619.57	3876.2000
619.91	3909.6499
620.24	3840.4500
620.58	3887.3000
620.91	3874.6499
621.24	3882.9500
621.58	3890.8000
621.91	3866.8501
622.25	3877.2500
622.58	3868.3501
622.91	3900.5500
623.25	3850.6001
623.58	3863.8501
623.91	3862.5000
624.25	3872.8999
624.58	3875.0500
624.92	3871.0500
625.25	3868.6499
625.58	3848.1499
625.92	3882.3999
626.25	3858.7000
626.58	3885.5500
626.92	3855.3999
627.25	3877.2000
627.58	3861.9500
627.91	3873.5000
628.25	3870.7500
628.58	3877.0500
628.91	3851.8999
629.25	3863.8501
629.58	3847.0000
629.91	3850.3999
630.25	3869.2500
630.58	3851.6001
630.91	3849.3501
631.24	3857.6499
631.58	3861.3999
631.91	3868.6001
632.24	3827.3501
632.57	3835.6001
632.91	3838.6001
633.24	3828.3000
633.57	3839.3000
633.90	3839.6001
634.24	3830.2500
634.57	3832.8000
634.90	3846.2500
635.23	3791.2000
635.56	3804.5500
635.90	3809.8999
636.23	3813.7000
636.56	3804.6499
636.89	3813.7500
637.22	3819.0500
637.56	3808.8000
637.89	3779.6499
638.22	3797.4500
638.55	3805.0500
638.88	3759.3999
639.21	3787.2500
639.55	3773.5000
639.88	3782.7000
640.21	3781.3501
640.54	3785.9500
640.87	3755.3501
641.20	3760.4500
641.53	3789.0500
641.87	3759.8501
642.20	3762.0000
642.53	3756.3999
642.86	3766.2000
643.19	3758.8501
643.52	3761.1001
643.85	3754.8501
644.18	3747.5500
644.51	3741.8999
644.84	3747.9500
645.18	3729.0500
645.51	3728.8999
645.84	3732.2500
646.17	3724.8999
646.50	3737.8999
646.83	3747.1001
647.16	3705.1001
647.49	3730.1499
647.82	3719.3999
648.15	3722.5500
648.48	3726.6499
648.81	3723.2500
649.14	3705.0500
649.47	3721.3501
649.80	3702.8000
650.13	3702.5000
650.46	3720.0000
650.79	3701.6001
651.12	3720.0500
651.45	3706.8000
651.78	3686.2500
652.11	3698.0500
652.44	3690.8000
652.77	3697.0500
653.10	3707.6001
653.43	3713.0500
653.76	3701.1499
654.09	3667.1001
654.42	3696.7000
654.75	3694.8999
655.08	3666.8999
655.41	3670.0500
655.74	3643.7000
656.07	3678.1001
656.39	3673.3000
656.72	3666.5500
657.05	3658.6001
657.38	3685.4500
657.71	3673.7000
658.04	3659.1001
658.37	3664.6499
658.70	3670.9500
659.03	3659.4500
659.36	3660.9500
659.68	3666.5000
660.01	3660.5500
660.34	3665.6499
660.67	3662.0500
661.00	3670.6499
661.33	3636.2500
661.66	3631.6499
661.98	3652.8999
662.31	3639.7000
662.64	3640.8000
662.97	3637.3501
663.30	3615.7500
663.63	3621.8999
663.95	3603.7000
664.28	3613.7000
664.61	3599.5500
664.94	3605.0500
665.27	3629.1001
665.59	3594.8000
665.92	3623.6499
666.25	3596.1001
666.58	3570.0500
666.91	3628.3999
667.23	3589.5500
667.56	3576.5500
667.89	3571.3000
668.22	3588.5500
668.54	3587.5500
668.87	3593.7500
669.20	3561.8000
669.53	3581.7500
669.85	3569.8000
670.18	3551.2000
670.51	3544.1001
670.83	3537.5000
671.16	3555.8501
671.49	3567.1499
671.82	3551.5000
672.14	3520.1499
672.47	3527.0000
672.80	3517.8999
673.12	3532.1001
673.45	3538.8501
673.78	3488.2000
674.10	3523.3999
674.43	3497.1001
674.76	3489.6001
675.08	3500.3000
675.41	3470.6499
675.74	3481.5000
676.06	3484.7000
676.39	3454.9500
676.72	3458.8501
677.04	3462.9500
677.37	3463.8999
677.69	3446.5000
678.02	3435.7000
678.35	3431.3501
678.67	3389.7500
679.00	3431.8501
679.32	3420.7500
679.65	3404.8999
679.98	3419.9500
680.30	3394.8000
680.63	3380.6001
680.95	3369.8999
681.28	3384.5500
681.60	3360.3999
681.93	3365.5500
682.26	3351.8999
682.58	3347.4500
682.91	3349.1001
683.23	3332.5500
683.56	3318.2000
683.88	3332.2500
684.21	3295.5000
684.53	3316.0500
684.86	3317.0000
685.18	3298.4500
685.51	3313.5000
685.83	3294.8999
686.16	3258.9500
686.48	3254.7500
686.81	3269.3999
687.13	3270.0000
687.46	3256.5000
687.78	3266.1499
688.11	3230.3999
688.43	3223.7500
688.76	3223.5000
689.08	3217.0000
689.41	3199.4500
689.73	3189.3000
690.05	3187.2000
690.38	3186.3501
690.70	3177.3501
691.03	3154.2000
691.35	3155.8999
691.68	3119.0000
692.00	3135.3999
692.32	3159.7500
692.65	3139.5500
692.97	3138.6499
693.29	3131.8000
693.62	3106.0500
693.94	3118.3000
694.27	3092.3999
694.59	3049.8000
694.91	3085.2000
695.24	3087.9500
695.56	3056.7500
695.88	3044.0500
696.21	3007.0500
696.53	2986.5500
696.85	3024.2500
697.18	3032.0000
697.50	3011.5000
697.82	3030.6499
698.15	3011.0000
698.47	2998.5500
698.79	3001.0000
699.12	3017.3501
699.44	2959.1499
699.76	2953.6001
700.09	2962.2000
700.41	2955.9500
700.73	2936.6001
701.05	2958.3000
701.38	2933.0000
701.70	2931.5000
702.02	2939.8999
702.34	2918.1001
702.67	2922.0000
702.99	2918.1001
703.31	2895.5000
703.63	2896.9500
703.96	2883.2000
704.28	2868.8999
704.60	2857.7000
704.92	2873.5500
705.25	2855.5500
705.57	2856.1499
705.89	2842.9500
706.21	2835.5000
706.53	2831.8501
706.86	2832.7000
707.18	2820.1499
707.50	2838.8999
707.82	2803.8501
708.14	2821.8999
708.46	2831.2000
708.79	2790.7500
709.11	2815.6001
709.43	2784.2500
709.75	2780.2500
710.07	2776.1001
710.39	2772.4500
710.71	2759.6001
711.04	2757.8999
711.36	2750.5000
711.68	2746.3000
712.00	2740.2000
712.32	2748.8999
712.64	2713.8000
712.96	2708.0000
713.28	2687.2500
713.60	2719.3999
713.92	2690.4500
714.24	2704.3501
714.57	2691.7000
714.89	2688.1499
715.21	2679.2500
715.53	2656.0000
715.85	2661.7000
716.17	2665.5500
716.49	2663.5000
716.81	2649.1001
717.13	2654.7500
717.45	2629.8000
717.77	2621.7500
718.09	2610.7000
718.41	2618.8000
718.73	2608.1001
719.05	2594.8501
719.37	2563.8999
719.69	2588.1499
720.01	2584.3000
720.33	2555.7000
720.65	2549.3999
720.97	2559.9500
721.29	2538.5500
721.61	2553.9500
721.93	2536.4500
722.25	2517.8000
722.57	2509.0500
722.89	2512.7500
723.21	2506.1001
723.52	2492.7000
723.84	2476.0000
724.16	2495.2500
724.48	2488.7500
724.80	2484.3000
725.12	2476.1001
725.44	2479.3501
725.76	2458.6499
726.08	2471.9500
726.40	2450.5500
726.72	2458.2500
727.03	2465.3501
727.35	2456.1001
727.67	2433.9500
727.99	2445.0500
728.31	2432.8000
728.63	2422.5000
728.95	2434.0000
729.26	2407.8999
729.58	2409.0000
729.90	2408.7500
730.22	2374.2500
730.54	2375.8000
730.86	2392.5000
731.17	2403.6001
731.49	2377.7000
731.81	2387.2000
732.13	2384.5000
732.45	2351.3000
732.76	2358.0500
733.08	2359.0500
733.40	2350.9500
733.72	2342.3501
734.03	2330.1001
734.35	2335.8501
734.67	2349.0000
734.99	2326.1001
735.30	2327.1499
735.62	2319.6499
735.94	2312.0000
736.26	2295.1499
736.57	2284.8000
736.89	2311.5000
737.21	2272.6499
737.53	2261.5500
737.84	2259.7000
738.16	2241.4500
738.48	2244.3501
738.79	2251.0000
739.11	2231.7000
739.43	2217.1001
739.74	2214.9500
740.06	2201.4500
740.38	2190.1499
740.69	2186.3501
741.01	2177.7000
741.33	2162.1001
741.64	2157.8000
741.96	2152.1001
742.28	2142.2000
742.59	2116.2000
742.91	2115.8501
743.23	2106.0000
743.54	2118.7000
743.86	2100.9500
744.17	2081.8000
744.49	2085.5000
744.81	2079.5000
745.12	2066.3999
745.44	2051.9500
745.75	2051.3999
746.07	2038.9000
746.38	2033.9500
746.70	2029.6500
747.02	2036.3000
747.33	2011.1000
747.65	2010.8000
747.96	2005.5500
748.28	2001.2500
748.59	1999.0500
748.91	1985.6000
749.22	1996.4000
749.54	1978.9000
749.85	1986.0500
750.17	1977.3000
750.48	1962.4000
750.80	1959.7000
751.11	1958.4000
751.43	1961.4500
751.74	1959.8000
752.06	1954.3000
752.37	1942.9000
752.69	1945.2500
753.00	1935.7500
753.32	1936.2500
753.63	1937.2500
753.95	1930.6500
754.26	1912.3000
754.58	1921.2500
754.89	1922.5500
755.20	1918.1000
755.52	1920.5000
755.83	1913.7000
756.15	1909.5000
756.46	1893.3000
756.78	1888.9000
757.09	1890.7500
757.40	1886.7500
757.72	1879.7500
758.03	1875.8500
758.34	1870.3500
758.66	1878.3500
758.97	1877.5000
759.29	1873.0000
759.60	1873.2000
759.91	1848.2000
760.23	1855.8500
760.54	1863.3000
760.85	1855.1000
761.17	1845.2000
761.48	1838.7500
761.79	1815.5500
762.11	1823.4500
762.42	1814.1500
762.73	1829.2000
763.05	1819.1000
763.36	1826.4500
763.67	1817.4000
763.98	1794.5000
764.30	1770.9500
764.61	1782.0000
764.92	1784.3500
765.23	1786.2500
765.55	1765.3000
765.86	1765.5500
766.17	1769.1500
766.48	1763.2500
766.80	1734.2000
767.11	1752.1000
767.42	1716.6000
767.73	1722.2500
768.05	1723.7000
768.36	1726.2000
768.67	1739.0000
768.98	1719.8000
769.29	1732.9500
769.61	1710.8500
769.92	1679.5500
770.23	1683.0500
770.54	1653.2500
770.85	1672.4500
771.17	1672.4500
771.48	1672.9000
771.79	1661.0000
772.10	1648.1500
772.41	1646.3500
772.72	1628.6000
773.03	1623.4500
773.35	1615.5000
773.66	1599.4000
773.97	1604.2000
774.28	1590.9000
774.59	1575.6500
774.90	1588.7000
775.21	1594.1500
775.52	1585.6000
775.83	1576.9000
776.15	1558.5500
776.46	1544.6500
776.77	1539.6000
777.08	1541.8500
777.39	1542.2000
777.70	1520.8000
778.01	1527.9500
778.32	1526.4000
778.63	1527.8000
778.94	1511.3000
779.25	1502.1500
779.56	1495.0500
779.87	1483.9500
780.18	1467.5500
780.49	1462.5500
780.80	1463.6000
781.11	1444.9000
781.42	1443.8000
781.73	1441.6500
782.04	1419.8500
782.35	1409.8500
782.66	1408.3000
782.97	1403.3000
783.28	1410.4000
783.59	1396.5500
783.90	1396.3000
784.21	1386.3500
784.52	1376.8000
784.83	1367.2000
785.14	1359.7000
785.45	1354.1000
785.76	1338.9000
786.06	1345.3500
786.37	1350.2000
786.68	1335.5000
786.99	1331.7000
787.30	1322.1500
787.61	1327.7000
787.92	1305.2500
788.23	1291.2000
788.54	1306.2000
788.84	1294.3500
789.15	1293.9500
789.46	1285.8500
789.77	1266.0000
790.08	1270.4500
790.39	1254.6500
790.70	1266.5500
791.00	1264.2000
791.31	1234.6500
791.62	1242.2000
791.93	1229.6500
792.24	1229.0000
792.54	1218.6500
792.85	1203.2500
793.16	1208.0500
793.47	1196.2500
793.78	1194.2000
794.08	1191.5500
794.39	1180.1500
794.70	1181.0000
795.01	1167.8000
795.31	1163.2000
795.62	1150.4500
795.93	1161.3500
796.24	1159.0500
796.54	1143.5500
796.85	1145.7500
797.16	1124.5000
797.47	1112.0500
797.77	1117.3500
798.08	1114.1000
798.39	1114.0500
798.69	1111.3500
799.00	1099.8000
799.31	1096.1500
799.62	1087.8500
799.92	1081.0500
800.23	1077.3000
800.54	1075.1500
800.84	1070.2000
801.15	1061.5000
801.46	1060.0000
801.76	1056.9000
802.07	1037.5500
802.37	1035.8500
802.68	1028.9500
802.99	1035.7000
803.29	1018.7500
803.60	1012.1500
803.91	1006.1500
804.21	1009.1500
804.52	1008.3500
804.82	998.2000
805.13	1005.8000
805.44	994.2500
805.74	990.0000
806.05	987.9500
806.35	977.1500
806.66	972.4000
806.96	974.6500
807.27	958.0500
807.57	956.7500
807.88	954.0500
808.19	939.5000
808.49	944.9000
808.80	932.9000
809.10	931.5500
809.41	937.5500
809.71	921.1500
810.02	923.2500
810.32	915.8500
810.63	915.0500
810.93	917.0000
811.24	906.5000
811.54	910.3000
811.85	899.4500
812.15	893.7000
812.45	890.1500
812.76	882.8000
813.06	874.8000
813.37	872.6500
813.67	878.8500
813.98	863.7500
814.28	854.3500
814.58	862.9500
814.89	847.6000
815.19	849.7000
815.50	840.1500
815.80	839.4000
816.11	831.5000
816.41	837.9000
816.71	831.4500
817.02	828.4500
817.32	825.6500
817.62	813.4500
817.93	816.5000
818.23	809.9500
818.53	806.2500
818.84	813.4500
819.14	798.2000
819.44	795.4500
819.75	792.1500
820.05	784.7000
820.35	774.8000
820.66	773.0500
820.96	777.6500
821.26	773.7500
821.57	770.9500
821.87	763.6000
822.17	764.5500
822.48	764.7000
822.78	758.5000
823.08	746.9000
823.38	752.9500
823.69	742.7500
823.99	747.7500
824.29	743.7500
824.59	732.3000
824.90	738.7500
825.20	729.4500
825.50	720.8000
825.80	721.2500
826.10	725.5000
826.41	716.1000
826.71	713.4500
827.01	711.5500
827.31	712.9500
827.61	709.3500
827.92	709.1000
828.22	703.2000
828.52	701.1000
828.82	696.8500
829.12	686.7000
829.42	687.0000
829.73	684.9000
830.03	682.7000
830.33	682.4500
830.63	674.5000
830.93	673.6500
831.23	666.5000
831.53	668.5000
831.83	663.6500
832.14	658.7500
832.44	659.8500
832.74	653.0000
833.04	654.0000
833.34	657.9500
833.64	645.2500
833.94	644.7000
834.24	644.5500
834.54	643.9500
834.84	636.1500
835.14	631.2000
835.44	631.8000
835.74	632.7000
836.04	629.0500
836.34	627.8000
836.64	622.9500
836.95	620.2500
837.25	610.7500
837.55	616.0000
837.85	611.9500
838.15	612.5000
838.45	606.8000
838.74	604.1500
839.04	598.4500
839.34	597.3000
839.64	589.4500
839.94	590.9000
840.24	585.8500
840.54	590.2000
840.84	589.3000
841.14	583.3500
841.44	583.9000
841.74	580.0500
842.04	573.2000
842.34	575.3500
842.64	568.5000
842.94	569.5000
843.24	569.0500
843.53	563.0000
843.83	565.6000
844.13	558.0500
844.43	554.4500
844.73	558.1000
845.03	552.7500
845.33	547.5500
845.63	546.9500
845.92	542.2500
846.22	542.3000
846.52	540.5500
846.82	541.1000
847.12	533.1000
847.42	534.7500
847.71	532.9500
848.01	528.6500
848.31	523.0500
848.61	525.5000
848.91	522.4500
849.20	526.4500
849.50	519.7000
849.80	516.5000
850.10	515.5500
850.39	508.8500
850.69	511.5500
850.99	507.4500
851.29	508.2500
851.59	501.1500
851.88	501.4500
852.18	499.8000
852.48	497.0500
852.77	489.9500
853.07	493.8500
853.37	487.5500
853.67	486.4500
853.96	485.0000
854.26	482.7500
854.56	479.6500
854.85	479.4000
855.15	479.1500
855.45	476.9000
855.74	472.8000
856.04	469.4500
856.34	470.7500
856.63	466.5000
856.93	460.5500
857.23	465.4500
857.52	457.0000
857.82	454.3000
858.11	458.7500
858.41	453.3000
858.71	451.9000
859.00	447.3000
859.30	447.3500
859.59	442.7000
859.89	440.6000
860.19	439.0000
860.48	436.8500
860.78	435.6000
861.07	435.8000
861.37	434.5000
861.66	431.2000
861.96	427.7000
862.26	426.9000
862.55	423.8500
862.85	423.1000
863.14	419.3000
863.44	418.3000
863.73	414.9000
864.03	410.2500
864.32	413.0000
864.62	410.8000
864.91	407.9000
865.21	403.7500
865.50	401.3500
865.80	400.6000
866.09	398.5500
866.39	399.3000
866.68	400.4500
866.97	391.8500
867.27	392.6000
867.56	387.7000
867.86	387.0500
868.15	383.0500
868.45	379.0000
868.74	379.0000
869.03	377.3000
869.33	379.6500
869.62	373.2000
869.92	372.6000
870.21	366.6500
870.50	365.3000
870.80	364.2500
871.09	364.6000
871.39	360.4500
871.68	360.1000
871.97	356.5000
872.27	355.7500
872.56	351.1500
872.85	351.4000
873.15	348.4000
873.44	343.4500
873.73	346.4000
874.03	341.1000
874.32	340.0000
874.61	338.0500
874.90	334.9000
875.20	335.4500
875.49	333.9000
875.78	330.6500
>>>>>End Spectral Data<<<<<
