OOIBase32 Version 1.0.0.8 Data File
++++++++++++++++++++++++++++++++++++
Date: Monday, January 21, 1980, 02:21:21
User: Valued Ocean Optics Customer
Spectrometer Serial Number: Unknown
Spectrometer Channel: Master
Integration Time (msec): 7
Spectra Averaged: 20
Boxcar Smoothing: 0
Correct for Electrical Dark: Disabled
Time Normalized: Disabled
Dual-beam Reference: Disabled
Reference Channel: Master
>>>>>Begin Spectral Data<<<<<
179.00	0.0000
179.38	0.0000
179.75	72.0500
180.13	73.0000
180.51	72.8500
180.88	73.4000
181.26	73.6000
181.64	73.4500
182.02	74.4000
182.39	74.4000
182.77	73.9000
183.15	72.7500
183.52	73.1500
183.90	73.9000
184.28	73.5500
184.65	73.7500
185.03	72.4500
185.41	73.0500
185.78	73.7000
186.16	73.2500
186.53	73.4500
186.91	73.8500
187.29	74.6000
187.66	73.8000
188.04	74.0500
188.42	76.3500
188.79	77.0500
189.17	78.2500
189.55	77.5000
189.92	76.5500
190.30	78.0500
190.67	77.1000
191.05	77.2500
191.43	78.0000
191.80	76.2500
192.18	76.9500
192.56	76.9000
192.93	77.8500
193.31	76.3000
193.68	75.7000
194.06	77.3500
194.44	76.3500
194.81	76.9000
195.19	77.4000
195.56	77.0500
195.94	78.3500
196.32	76.3000
196.69	76.1500
197.07	78.5000
197.44	77.5000
197.82	75.8000
198.19	76.5000
198.57	76.7000
198.95	77.4000
199.32	76.5000
199.70	77.3000
200.07	77.5000
200.45	77.8000
200.82	76.9500
201.20	77.8500
201.57	77.7000
201.95	78.5500
202.33	76.9000
202.70	76.3500
203.08	77.7000
203.45	77.5000
203.83	76.3000
204.20	77.2500
204.58	77.7000
204.95	77.7500
205.33	78.3500
205.70	78.0500
206.08	78.4500
206.45	77.2000
206.83	77.4500
207.20	78.1500
207.58	77.0500
207.95	77.7500
208.33	77.5500
208.70	77.8500
209.08	77.8500
209.45	76.6000
209.83	76.5500
210.20	76.9500
210.58	77.3000
210.95	77.2000
211.33	77.0000
211.70	77.9000
212.08	77.7000
212.45	77.6500
212.83	77.2500
213.20	77.7000
213.58	77.3000
213.95	76.9000
214.33	77.8500
214.70	78.3500
215.07	77.4500
215.45	78.0500
215.82	77.7000
216.20	77.9500
216.57	77.1500
216.95	77.6000
217.32	77.1000
217.70	77.9500
218.07	78.9500
218.44	78.6500
218.82	77.4500
219.19	78.4500
219.57	77.4500
219.94	78.2500
220.32	77.3500
220.69	77.4500
221.06	77.2500
221.44	78.6000
221.81	78.0000
222.19	77.2500
222.56	76.9000
222.93	78.0500
223.31	78.0000
223.68	77.6000
224.06	77.3500
224.43	77.7000
224.80	77.5000
225.18	77.3000
225.55	78.0000
225.92	77.3000
226.30	78.8000
226.67	79.0500
227.05	78.5000
227.42	77.7000
227.79	78.0000
228.17	78.1000
228.54	77.5000
228.91	77.4000
229.29	78.1500
229.66	79.1500
230.03	76.8500
230.41	78.0000
230.78	77.2000
231.15	78.1500
231.53	76.4500
231.90	78.1500
232.27	77.9500
232.65	77.6000
233.02	78.4000
233.39	78.5500
233.77	77.5500
234.14	78.4000
234.51	76.9500
234.89	77.9500
235.26	77.6000
235.63	78.4000
236.01	77.6500
236.38	78.2000
236.75	77.4000
237.12	78.6500
237.50	78.7000
237.87	78.3000
238.24	78.4500
238.62	78.5500
238.99	78.0500
239.36	78.1500
239.73	78.4500
240.11	78.9000
240.48	78.2500
240.85	78.6000
241.23	77.6500
241.60	78.7500
241.97	77.9000
242.34	78.2500
242.72	78.5500
243.09	79.0000
243.46	77.5000
243.83	78.2000
244.21	78.0000
244.58	77.1500
244.95	79.0500
245.32	77.1000
245.70	78.8500
246.07	79.7000
246.44	79.0500
246.81	77.6000
247.18	76.8500
247.56	78.7500
247.93	79.2500
248.30	78.5000
248.67	79.3000
249.04	79.7000
249.42	78.2500
249.79	78.5000
250.16	78.8500
250.53	78.2500
250.90	76.9000
251.28	78.6000
251.65	78.7000
252.02	77.9000
252.39	78.5000
252.76	79.6500
253.14	78.7000
253.51	78.4000
253.88	77.9000
254.25	79.0000
254.62	77.1000
254.99	78.3500
255.37	78.3500
255.74	78.5500
256.11	78.4500
256.48	77.5500
256.85	79.0000
257.22	77.8500
257.59	78.0000
257.97	78.4500
258.34	78.6500
258.71	78.2500
259.08	79.2500
259.45	78.4000
259.82	77.4000
260.19	77.7500
260.56	78.7000
260.94	78.1500
261.31	77.2000
261.68	79.2000
262.05	78.9500
262.42	79.4000
262.79	78.0000
263.16	79.2500
263.53	78.6500
263.90	78.2500
264.28	79.1500
264.65	78.9500
265.02	78.4000
265.39	78.9500
265.76	79.4500
266.13	78.5000
266.50	78.4000
266.87	77.6500
267.24	78.2000
267.61	79.5500
267.98	79.2500
268.35	79.4000
268.72	78.9000
269.09	78.3500
269.46	78.5000
269.84	78.6000
270.21	77.7500
270.58	78.6500
270.95	78.9500
271.32	78.8500
271.69	78.8000
272.06	78.5500
272.43	78.8000
272.80	78.7000
273.17	80.2500
273.54	79.5500
273.91	78.3500
274.28	79.1500
274.65	78.1000
275.02	79.7000
275.39	78.4500
275.76	79.3000
276.13	78.8500
276.50	77.4500
276.87	78.1000
277.24	78.5000
277.61	78.8500
277.98	78.9000
278.35	79.0500
278.72	79.2500
279.09	78.3000
279.46	79.3000
279.83	78.0500
280.20	78.7500
280.57	79.4500
280.94	79.3500
281.31	78.8000
281.67	79.4500
282.04	77.7000
282.41	77.5500
282.78	78.3000
283.15	78.8000
283.52	78.9500
283.89	80.0500
284.26	78.6500
284.63	78.0500
285.00	78.6500
285.37	78.2000
285.74	79.7500
286.11	79.6000
286.48	79.2500
286.85	79.0000
287.21	79.0500
287.58	78.9000
287.95	80.6500
288.32	79.9000
288.69	78.9000
289.06	78.6500
289.43	78.7000
289.80	78.7500
290.17	78.1500
290.54	79.1000
290.90	78.7000
291.27	80.2000
291.64	78.6500
292.01	78.7000
292.38	79.0000
292.75	78.6000
293.12	78.6000
293.48	79.2500
293.85	78.9500
294.22	78.1000
294.59	78.2000
294.96	78.9000
295.33	79.4000
295.70	79.4500
296.06	79.5500
296.43	79.6000
296.80	79.4500
297.17	79.0500
297.54	79.0500
297.91	79.6500
298.27	79.1000
298.64	79.1000
299.01	79.9500
299.38	79.0000
299.75	77.9500
300.11	78.5500
300.48	78.8000
300.85	79.9000
301.22	79.0000
301.59	79.4500
301.95	79.3500
302.32	79.5000
302.69	79.4000
303.06	78.9000
303.43	79.3000
303.79	79.9000
304.16	79.2500
304.53	80.3000
304.90	79.8000
305.26	78.8000
305.63	79.0500
306.00	79.1500
306.37	78.6000
306.73	80.0000
307.10	80.0000
307.47	79.4000
307.84	80.0500
308.20	79.5500
308.57	78.8000
308.94	79.3000
309.31	80.0500
309.67	79.4500
310.04	80.0500
310.41	79.6000
310.77	79.3000
311.14	79.4500
311.51	79.1000
311.88	79.5500
312.24	79.3000
312.61	79.4000
312.98	78.8000
313.34	78.1000
313.71	79.2000
314.08	80.3000
314.44	80.0000
314.81	79.6000
315.18	79.6000
315.55	78.8500
315.91	79.9000
316.28	79.9500
316.65	79.5000
317.01	80.6500
317.38	79.6500
317.75	80.1000
318.11	79.8000
318.48	79.8500
318.84	80.5500
319.21	80.4500
319.58	78.6500
319.94	79.0000
320.31	79.2000
320.68	80.7500
321.04	79.4000
321.41	79.4500
321.78	79.8000
322.14	80.1000
322.51	80.1000
322.87	79.9500
323.24	80.3000
323.61	80.8500
323.97	79.5000
324.34	79.3000
324.70	79.5500
325.07	80.0000
325.44	79.9500
325.80	80.5500
326.17	81.2500
326.53	80.3500
326.90	79.5500
327.27	79.8000
327.63	78.3500
328.00	80.6000
328.36	79.4500
328.73	79.8000
329.09	79.7000
329.46	80.9500
329.83	78.9500
330.19	79.3500
330.56	79.2000
330.92	80.2000
331.29	79.9500
331.65	80.5000
332.02	79.6000
332.38	80.3000
332.75	78.9500
333.11	79.2500
333.48	80.2500
333.84	80.3000
334.21	80.1000
334.58	80.0000
334.94	80.3000
335.31	80.0500
335.67	79.3500
336.04	79.8000
336.40	78.8500
336.77	80.7500
337.13	79.7000
337.50	80.7500
337.86	80.2500
338.22	80.7500
338.59	80.5000
338.95	80.8500
339.32	80.9000
339.68	80.4000
340.05	80.7000
340.41	81.4000
340.78	81.0500
341.14	79.9500
341.51	80.6500
341.87	79.9000
342.24	79.7500
342.60	80.8000
342.96	80.6000
343.33	80.2500
343.69	80.2500
344.06	79.7500
344.42	80.5500
344.79	79.3000
345.15	80.0500
345.51	81.1000
345.88	81.0500
346.24	80.3000
346.61	80.3000
346.97	81.4000
347.34	81.6500
347.70	81.1500
348.06	80.4500
348.43	78.9500
348.79	79.9000
349.16	80.5000
349.52	80.0000
349.88	80.9500
350.25	81.2500
350.61	80.9000
350.97	80.0500
351.34	81.2500
351.70	81.5000
352.07	81.3000
352.43	80.8500
352.79	81.7000
353.16	81.3500
353.52	80.2500
353.88	80.6000
354.25	80.8000
354.61	80.3500
354.97	81.2000
355.34	80.5500
355.70	81.2000
356.06	80.9000
356.43	80.4000
356.79	82.0500
357.15	81.1500
357.52	81.9500
357.88	81.6000
358.24	80.6000
358.60	81.5000
358.97	81.1500
359.33	81.6000
359.69	81.5500
360.06	82.7000
360.42	82.3000
360.78	82.7500
361.14	81.3000
361.51	81.4500
361.87	82.1500
362.23	82.6500
362.60	80.6500
362.96	82.1000
363.32	81.4500
363.68	81.7500
364.05	82.3500
364.41	81.7500
364.77	82.3500
365.13	81.2000
365.50	82.7500
365.86	81.9000
366.22	81.7000
366.58	81.4500
366.95	81.3500
367.31	81.9500
367.67	82.7500
368.03	81.8500
368.39	83.1500
368.76	83.1500
369.12	82.0500
369.48	84.1000
369.84	83.9500
370.20	82.0500
370.57	83.3000
370.93	82.9500
371.29	83.6000
371.65	83.6000
372.01	83.4000
372.38	84.0000
372.74	83.6000
373.10	83.8000
373.46	84.3500
373.82	83.8000
374.18	84.5000
374.55	84.7000
374.91	84.2500
375.27	84.5500
375.63	85.1000
375.99	84.7000
376.35	84.2500
376.71	84.7000
377.08	86.1000
377.44	85.9000
377.80	86.9000
378.16	86.9500
378.52	87.2000
378.88	86.2000
379.24	88.1000
379.60	89.2500
379.97	89.0500
380.33	89.3000
380.69	88.8000
381.05	91.1000
381.41	92.8000
381.77	92.8500
382.13	92.0000
382.49	94.5000
382.85	94.4000
383.21	96.1500
383.57	96.9000
383.94	98.5000
384.30	99.9500
384.66	99.7000
385.02	101.7000
385.38	103.1500
385.74	104.7500
386.10	105.0500
386.46	107.8000
386.82	107.5500
387.18	108.9000
387.54	109.4500
387.90	108.9000
388.26	113.1500
388.62	115.4500
388.98	113.7500
389.34	115.4500
389.70	116.5500
390.06	113.9500
390.42	117.3500
390.78	121.6000
391.14	123.9500
391.50	122.9000
391.86	125.9000
392.22	127.1500
392.58	126.9000
392.94	124.9000
393.30	127.6500
393.66	129.1500
394.02	130.5000
394.38	127.1000
394.74	132.3000
395.10	132.4000
395.46	137.4000
395.82	135.4500
396.18	134.0000
396.54	140.4500
396.90	143.7500
397.26	142.3000
397.62	140.8000
397.98	147.8500
398.34	143.5500
398.70	145.0000
399.05	141.7500
399.41	143.5500
399.77	147.8500
400.13	149.5500
400.49	153.1000
400.85	156.3500
401.21	151.1000
401.57	160.0500
401.93	157.6000
402.29	156.8000
402.65	158.4500
403.00	163.9500
403.36	167.6500
403.72	163.6500
404.08	175.5000
404.44	165.4500
404.80	168.4000
405.16	174.3000
405.52	180.0000
405.87	181.7500
406.23	183.9500
406.59	173.3000
406.95	177.3500
407.31	182.1500
407.67	182.6500
408.03	181.9500
408.38	190.3000
408.74	200.0500
409.10	199.6000
409.46	191.1000
409.82	199.9500
410.17	196.5500
410.53	193.0500
410.89	199.8000
411.25	187.4500
411.61	197.2000
411.97	206.8500
412.32	203.9000
412.68	210.5000
413.04	208.1500
413.40	191.4000
413.75	205.1000
414.11	210.7500
414.47	207.9500
414.83	224.2500
415.19	217.9500
415.54	208.2000
415.90	220.7500
416.26	218.5500
416.62	225.3500
416.97	214.0000
417.33	228.7000
417.69	233.0500
418.05	228.3000
418.40	218.3000
418.76	228.9000
419.12	244.2000
419.48	238.5000
419.83	251.8500
420.19	228.8500
420.55	234.3000
420.90	255.8500
421.26	244.4500
421.62	240.2500
421.98	255.6000
422.33	265.3000
422.69	269.7000
423.05	272.2500
423.40	247.8500
423.76	242.8500
424.12	267.0500
424.47	265.8500
424.83	266.2500
425.19	265.4500
425.54	266.3000
425.90	277.9500
426.26	288.0500
426.61	290.5500
426.97	250.5500
427.33	285.4000
427.68	281.9500
428.04	304.5000
428.40	317.4500
428.75	323.8500
429.11	295.8000
429.47	327.5500
429.82	323.5000
430.18	319.6000
430.53	309.6500
430.89	314.9500
431.25	320.9000
431.60	330.7500
431.96	324.8000
432.31	318.6500
432.67	342.2500
433.03	350.4000
433.38	336.7500
433.74	348.5500
434.09	344.7000
434.45	336.7000
434.81	329.2500
435.16	355.3500
435.52	332.9500
435.87	325.3500
436.23	332.3000
436.58	339.6500
436.94	355.4500
437.30	359.7500
437.65	377.6500
438.01	365.9000
438.36	368.3500
438.72	367.7500
439.07	358.8000
439.43	365.9500
439.78	390.6500
440.14	408.2000
440.49	376.5500
440.85	381.9000
441.20	399.0500
441.56	394.2000
441.91	423.4500
442.27	391.8000
442.62	396.7500
442.98	409.8500
443.33	399.2500
443.69	407.4000
444.04	401.5500
444.40	386.9500
444.75	426.2500
445.11	432.9500
445.46	443.3500
445.82	441.6500
446.17	414.1000
446.53	441.9000
446.88	486.1500
447.23	411.5000
447.59	415.7500
447.94	416.2000
448.30	447.6000
448.65	435.2500
449.01	463.6500
449.36	463.9000
449.72	496.2500
450.07	513.9500
450.42	501.0500
450.78	478.3000
451.13	498.8000
451.49	479.8500
451.84	469.7000
452.19	475.3500
452.55	500.1000
452.90	506.0000
453.26	537.1000
453.61	555.9500
453.96	472.8000
454.32	527.5000
454.67	528.2500
455.02	494.7000
455.38	516.4000
455.73	514.3000
456.09	562.1500
456.44	561.6500
456.79	550.6000
457.15	551.7500
457.50	531.5000
457.85	545.4500
458.21	541.6000
458.56	568.7500
458.91	559.0500
459.27	526.3000
459.62	550.0500
459.97	560.5500
460.32	578.9000
460.68	579.1500
461.03	572.7000
461.38	584.2000
461.74	646.2000
462.09	625.7000
462.44	597.0000
462.80	591.2000
463.15	600.8000
463.50	600.3500
463.85	645.7500
464.21	623.4500
464.56	653.7500
464.91	610.7500
465.26	632.1000
465.62	636.0000
465.97	681.9000
466.32	675.8000
466.67	676.2000
467.03	675.2500
467.38	692.3500
467.73	702.1500
468.08	720.5500
468.44	729.0500
468.79	728.5000
469.14	693.1000
469.49	732.8000
469.85	750.0500
470.20	821.7000
470.55	821.7000
470.90	825.1500
471.25	786.3000
471.61	815.1000
471.96	817.9000
472.31	842.2000
472.66	849.6500
473.01	876.1500
473.36	899.8500
473.72	886.2000
474.07	917.2000
474.42	919.7500
474.77	927.1000
475.12	952.0500
475.47	980.8500
475.83	986.3000
476.18	986.9000
476.53	975.5000
476.88	1029.6500
477.23	1041.4500
477.58	1036.1500
477.93	1059.2000
478.28	1053.6000
478.64	1075.5000
478.99	1100.9500
479.34	1117.0000
479.69	1135.5000
480.04	1167.7500
480.39	1172.7500
480.74	1154.1000
481.09	1223.9500
481.44	1227.1500
481.79	1217.5500
482.15	1233.7000
482.50	1258.1000
482.85	1260.5500
483.20	1306.3500
483.55	1306.1500
483.90	1333.1000
484.25	1324.6000
484.60	1321.0000
484.95	1357.0000
485.30	1368.1500
485.65	1385.9000
486.00	1398.5500
486.35	1382.4000
486.70	1397.4000
487.05	1451.9000
487.40	1453.8500
487.75	1463.3500
488.10	1478.1000
488.45	1471.8500
488.80	1482.8500
489.15	1520.1000
489.50	1526.2500
489.85	1535.1500
490.20	1533.2500
490.55	1561.5000
490.90	1573.6500
491.25	1581.2000
491.60	1573.8000
491.95	1578.7000
492.30	1600.1000
492.65	1618.1500
493.00	1615.3500
493.35	1621.9500
493.70	1638.4000
494.05	1650.0000
494.40	1678.5000
494.75	1680.7500
495.10	1677.0500
495.45	1685.9500
495.80	1700.3500
496.15	1716.3000
496.50	1704.7000
496.84	1707.6000
497.19	1717.5500
497.54	1741.4500
497.89	1746.8500
498.24	1745.1000
498.59	1771.8000
498.94	1759.6500
499.29	1771.8500
499.64	1778.4000
499.99	1793.0000
500.33	1801.8500
500.68	1810.3000
501.03	1817.4500
501.38	1821.6500
501.73	1846.7500
502.08	1837.6000
502.43	1864.2500
502.77	1872.4500
503.12	1877.2000
503.47	1882.9000
503.82	1901.3500
504.17	1916.1500
504.52	1928.3500
504.86	1932.0500
505.21	1961.7000
505.56	1956.0500
505.91	1963.7000
506.26	1968.5000
506.61	1990.7500
506.95	1994.6000
507.30	2007.9500
507.65	2031.6500
508.00	2028.8500
508.35	2035.1000
508.69	2044.9000
509.04	2067.5000
509.39	2061.5000
509.74	2067.8000
510.08	2078.0000
510.43	2104.3501
510.78	2107.2500
511.13	2117.8000
511.47	2134.9500
511.82	2147.5000
512.17	2146.3501
512.52	2171.6499
512.86	2186.8999
513.21	2198.7000
513.56	2200.7500
513.91	2234.1499
514.25	2231.0000
514.60	2246.4500
514.95	2253.6499
515.30	2260.5500
515.64	2262.3999
515.99	2301.7500
516.34	2301.3000
516.68	2320.2000
517.03	2330.7000
517.38	2335.6499
517.72	2370.7500
518.07	2363.1001
518.42	2366.5000
518.76	2402.7000
519.11	2402.5000
519.46	2432.7000
519.80	2420.8501
520.15	2428.8999
520.50	2455.1499
520.84	2454.2500
521.19	2465.2500
521.54	2479.6499
521.88	2469.8000
522.23	2506.6001
522.58	2495.5000
522.92	2513.6001
523.27	2524.8000
523.61	2528.3501
523.96	2534.1001
524.31	2573.4500
524.65	2579.7000
525.00	2573.8501
525.34	2547.9500
525.69	2565.3000
526.04	2594.5500
526.38	2607.8999
526.73	2611.8501
527.07	2634.1001
527.42	2624.3501
527.76	2649.6001
528.11	2662.8999
528.46	2649.3000
528.80	2654.8000
529.15	2640.8000
529.49	2646.7000
529.84	2662.2000
530.18	2679.7500
530.53	2698.1499
530.87	2687.7500
531.22	2684.0000
531.56	2689.1499
531.91	2704.8501
532.25	2699.3000
532.60	2701.3999
532.94	2720.1001
533.29	2705.8000
533.63	2698.9500
533.98	2700.5000
534.32	2720.9500
534.67	2758.3501
535.01	2767.2500
535.36	2748.2500
535.70	2778.2500
536.05	2781.3501
536.39	2795.3000
536.74	2762.5000
537.08	2757.6499
537.43	2753.8501
537.77	2782.8000
538.12	2812.2500
538.46	2810.5000
538.80	2825.5500
539.15	2799.9500
539.49	2820.6499
539.84	2848.6499
540.18	2846.6001
540.53	2839.7500
540.87	2836.5500
541.21	2865.5500
541.56	2864.0500
541.90	2874.1499
542.25	2863.4500
542.59	2860.3000
542.93	2898.6499
543.28	2879.9500
543.62	2896.6499
543.97	2895.3000
544.31	2911.3000
544.65	2915.7000
545.00	2930.7000
545.34	2938.6499
545.68	2936.8501
546.03	2931.0000
546.37	2962.9500
546.71	2965.3501
547.06	2968.8000
547.40	2972.0500
547.74	3009.0000
548.09	2990.4500
548.43	2999.0500
548.77	3003.8000
549.12	3002.5000
549.46	3000.2000
549.80	3027.0000
550.15	3048.3000
550.49	3046.2500
550.83	3046.8999
551.17	3058.4500
551.52	3058.2500
551.86	3067.2000
552.20	3074.3501
552.55	3098.2000
552.89	3096.4500
553.23	3108.8999
553.57	3125.0500
553.92	3117.4500
554.26	3139.1001
554.60	3122.4500
554.94	3138.2000
555.29	3156.1499
555.63	3164.7500
555.97	3178.6499
556.31	3179.8501
556.66	3184.0000
557.00	3179.3501
557.34	3200.2500
557.68	3218.5500
558.02	3220.8999
558.37	3231.1001
558.71	3230.0000
559.05	3233.5000
559.39	3249.3000
559.73	3266.3501
560.08	3257.4500
560.42	3278.4500
560.76	3267.5000
561.10	3275.1001
561.44	3275.5500
561.78	3301.3000
562.13	3313.6499
562.47	3291.2500
562.81	3318.8999
563.15	3323.3000
563.49	3326.8000
563.83	3351.0500
564.17	3344.1001
564.52	3342.6001
564.86	3363.1499
565.20	3358.8000
565.54	3359.0500
565.88	3362.3501
566.22	3375.1499
566.56	3361.6499
566.90	3389.7500
567.24	3389.8501
567.59	3381.7500
567.93	3392.8501
568.27	3408.6001
568.61	3422.2000
568.95	3400.3999
569.29	3401.7500
569.63	3443.5000
569.97	3429.3000
570.31	3380.3000
570.65	3409.8501
570.99	3426.8000
571.33	3438.6001
571.67	3415.7500
572.01	3422.0000
572.35	3446.8501
572.69	3455.1499
573.03	3458.3000
573.37	3454.3000
573.71	3441.3501
574.05	3419.4500
574.39	3431.6001
574.73	3456.5500
575.07	3436.1499
575.41	3445.3999
575.75	3462.3501
576.09	3489.3000
576.43	3471.8000
576.77	3469.3000
577.11	3445.8000
577.45	3463.8000
577.79	3450.0000
578.13	3471.6001
578.47	3437.7500
578.81	3442.4500
579.15	3450.0500
579.49	3491.5500
579.83	3484.6001
580.17	3489.7500
580.51	3479.3000
580.85	3487.2000
581.19	3485.6001
581.53	3464.8999
581.87	3468.8999
582.20	3484.9500
582.54	3477.2500
582.88	3477.6499
583.22	3461.1499
583.56	3446.5000
583.90	3491.3999
584.24	3484.7000
584.58	3483.7000
584.92	3502.5500
585.25	3503.9500
585.59	3486.7000
585.93	3502.0500
586.27	3518.2000
586.61	3473.5500
586.95	3503.0500
587.29	3513.7000
587.62	3493.2500
587.96	3505.5000
588.30	3515.7500
588.64	3501.1499
588.98	3500.3999
589.31	3516.5500
589.65	3505.8999
589.99	3479.9500
590.33	3518.6499
590.67	3525.2000
591.01	3529.2000
591.34	3533.2000
591.68	3527.2500
592.02	3540.7000
592.36	3530.2500
592.69	3535.1001
593.03	3530.2000
593.37	3540.6001
593.71	3539.5500
594.04	3538.0000
594.38	3533.0500
594.72	3558.8999
595.06	3542.0000
595.39	3541.7000
595.73	3561.0000
596.07	3584.1001
596.41	3571.5500
596.74	3568.5500
597.08	3566.0500
597.42	3570.7000
597.76	3558.2000
598.09	3577.7000
598.43	3562.5500
598.77	3585.2000
599.10	3604.7000
599.44	3583.1499
599.78	3584.1001
600.11	3598.3999
600.45	3606.0000
600.79	3594.8999
601.12	3589.8501
601.46	3617.7000
601.80	3621.8000
602.13	3595.7000
602.47	3624.8501
602.81	3607.6001
603.14	3606.2500
603.48	3631.7500
603.82	3621.3999
604.15	3618.4500
604.49	3624.8999
604.82	3629.1001
605.16	3626.8000
605.50	3609.6001
605.83	3648.1001
606.17	3639.8501
606.50	3649.0000
606.84	3630.0000
607.18	3645.8501
607.51	3640.0500
607.85	3650.0000
608.18	3652.7000
608.52	3657.7500
608.86	3651.7500
609.19	3669.4500
609.53	3636.8999
609.86	3684.3000
610.20	3668.8501
610.53	3652.8501
610.87	3635.8999
611.20	3692.9500
611.54	3640.1001
611.87	3649.6001
612.21	3666.8000
612.54	3647.4500
612.88	3657.2000
613.21	3673.5000
613.55	3674.1499
613.88	3646.4500
614.22	3659.5500
614.55	3642.0000
614.89	3645.1001
615.22	3638.9500
615.56	3640.1001
615.89	3654.0000
616.23	3665.7000
616.56	3622.0000
616.90	3655.2500
617.23	3623.6001
617.57	3667.6001
617.90	3653.6001
618.24	3654.5500
618.57	3651.7000
618.90	3645.0000
619.24	3635.7000
619.57	3641.9500
619.91	3671.0000
620.24	3601.9500
620.58	3645.4500
620.91	3638.5500
621.24	3643.4500
621.58	3647.4500
621.91	3626.7000
622.25	3635.3999
622.58	3623.1499
622.91	3655.0500
623.25	3608.0000
623.58	3633.3501
623.91	3616.6499
624.25	3628.2000
624.58	3630.2500
624.92	3626.6499
625.25	3619.2000
625.58	3602.9500
625.92	3643.8000
626.25	3616.3999
626.58	3635.3999
626.92	3613.2500
627.25	3628.7000
627.58	3612.3000
627.91	3622.8999
628.25	3626.3000
628.58	3623.2500
628.91	3598.1499
629.25	3612.0500
629.58	3599.7000
629.91	3600.5000
630.25	3621.4500
630.58	3602.6001
630.91	3595.4500
631.24	3605.2000
631.58	3608.2500
631.91	3619.1499
632.24	3572.3999
632.57	3582.7500
632.91	3591.5000
633.24	3565.6499
633.57	3586.1001
633.90	3588.9500
634.24	3583.0500
634.57	3580.2500
634.90	3590.7000
635.23	3539.3999
635.56	3549.3999
635.90	3553.1001
636.23	3557.3501
636.56	3551.4500
636.89	3560.1499
637.22	3553.9500
637.56	3555.8501
637.89	3525.3501
638.22	3538.8999
638.55	3549.2500
638.88	3503.7500
639.21	3532.6001
639.55	3508.8501
639.88	3520.2000
640.21	3523.6499
640.54	3513.7000
640.87	3491.3501
641.20	3499.2000
641.53	3520.6001
641.87	3508.8000
642.20	3504.7500
642.53	3501.2000
642.86	3506.2500
643.19	3489.2000
643.52	3491.7000
643.85	3492.8000
644.18	3482.1499
644.51	3484.0500
644.84	3483.7500
645.18	3469.2000
645.51	3457.0500
645.84	3464.9500
646.17	3460.8000
646.50	3478.5500
646.83	3482.1001
647.16	3436.2000
647.49	3453.8999
647.82	3450.8000
648.15	3459.7000
648.48	3456.7500
648.81	3457.3501
649.14	3446.5000
649.47	3457.7500
649.80	3436.2000
650.13	3423.2500
650.46	3451.1499
650.79	3436.3501
651.12	3447.2000
651.45	3439.4500
651.78	3417.1001
652.11	3429.7000
652.44	3418.0000
652.77	3428.5500
653.10	3438.8999
653.43	3438.7000
653.76	3428.6001
654.09	3399.7000
654.42	3423.6499
654.75	3416.5500
655.08	3392.0500
655.41	3396.9500
655.74	3364.1001
656.07	3405.2500
656.39	3397.6499
656.72	3397.1499
657.05	3379.3999
657.38	3415.1001
657.71	3405.1001
658.04	3381.6001
658.37	3381.7500
658.70	3393.1499
659.03	3381.8501
659.36	3381.0000
659.68	3386.3501
660.01	3383.8501
660.34	3383.6499
660.67	3377.8501
661.00	3394.7500
661.33	3358.3999
661.66	3353.3501
661.98	3370.3999
662.31	3357.1001
662.64	3352.3000
662.97	3350.2500
663.30	3333.3999
663.63	3342.4500
663.95	3323.5500
664.28	3333.9500
664.61	3320.6499
664.94	3328.7000
665.27	3345.8999
665.59	3322.3000
665.92	3337.6001
666.25	3308.2500
666.58	3293.6499
666.91	3342.7000
667.23	3302.7000
667.56	3291.3999
667.89	3284.6499
668.22	3297.6001
668.54	3297.1499
668.87	3310.4500
669.20	3283.8000
669.53	3295.5500
669.85	3287.5500
670.18	3270.8000
670.51	3256.2000
670.83	3252.0000
671.16	3268.8000
671.49	3273.0500
671.82	3261.1499
672.14	3235.1001
672.47	3238.7500
672.80	3231.8501
673.12	3244.0500
673.45	3252.5000
673.78	3202.1499
674.10	3237.6499
674.43	3209.5500
674.76	3203.3501
675.08	3219.4500
675.41	3188.2500
675.74	3196.0000
676.06	3196.8999
676.39	3167.7000
676.72	3170.8000
677.04	3178.8501
677.37	3177.2500
677.69	3156.5000
678.02	3149.6001
678.35	3142.2000
678.67	3103.0500
679.00	3147.4500
679.32	3137.5500
679.65	3122.1001
679.98	3135.2500
680.30	3111.5000
680.63	3096.8501
680.95	3089.3999
681.28	3099.8999
681.60	3069.7500
681.93	3073.6499
682.26	3069.1001
682.58	3061.3501
682.91	3062.2000
683.23	3036.7500
683.56	3028.5000
683.88	3046.0000
684.21	3028.2500
684.53	3027.5500
684.86	3031.5000
685.18	3014.4500
685.51	3021.5500
685.83	3005.3000
686.16	2971.1001
686.48	2973.1001
686.81	2985.0000
687.13	2979.8999
687.46	2970.6499
687.78	2987.2000
688.11	2952.0000
688.43	2938.0500
688.76	2941.3000
689.08	2929.4500
689.41	2920.3999
689.73	2908.0000
690.05	2903.5000
690.38	2903.5500
690.70	2895.3501
691.03	2875.8501
691.35	2875.8000
691.68	2842.8999
692.00	2855.8000
692.32	2875.4500
692.65	2858.2500
692.97	2854.2500
693.29	2850.2500
693.62	2824.9500
693.94	2841.2000
694.27	2814.8000
694.59	2775.6499
694.91	2808.3000
695.24	2813.1499
695.56	2774.7500
695.88	2772.8501
696.21	2735.0000
696.53	2720.3999
696.85	2751.8501
697.18	2754.5000
697.50	2734.3000
697.82	2749.8999
698.15	2730.9500
698.47	2723.6001
698.79	2728.0000
699.12	2734.2500
699.44	2685.5500
699.76	2674.6001
700.09	2682.3501
700.41	2687.6499
700.73	2661.8501
701.05	2681.6499
701.38	2657.8000
701.70	2659.5000
702.02	2662.6499
702.34	2648.6499
702.67	2652.7000
702.99	2645.9500
703.31	2624.8999
703.63	2626.8000
703.96	2613.7500
704.28	2599.1499
704.60	2587.7000
704.92	2599.2500
705.25	2587.9500
705.57	2577.7500
705.89	2573.8999
706.21	2573.8501
706.53	2565.5000
706.86	2557.9500
707.18	2555.3999
707.50	2572.0000
707.82	2530.7000
708.14	2551.8000
708.46	2559.8501
708.79	2520.9500
709.11	2542.6499
709.43	2516.6001
709.75	2509.4500
710.07	2500.9500
710.39	2510.2000
710.71	2493.8000
711.04	2486.2000
711.36	2482.9500
711.68	2476.9500
712.00	2470.8999
712.32	2482.1499
712.64	2449.6499
712.96	2455.5500
713.28	2428.2000
713.60	2455.8999
713.92	2428.1499
714.24	2433.5500
714.57	2425.7500
714.89	2416.2500
715.21	2410.6001
715.53	2389.8999
715.85	2402.6499
716.17	2403.6001
716.49	2399.3000
716.81	2387.8000
717.13	2383.0000
717.45	2369.3999
717.77	2355.5500
718.09	2356.9500
718.41	2361.8501
718.73	2347.7000
719.05	2331.0000
719.37	2304.0000
719.69	2328.6499
720.01	2322.8000
720.33	2299.3999
720.65	2293.1499
720.97	2294.0000
721.29	2274.3501
721.61	2291.1499
721.93	2281.0500
722.25	2262.6001
722.57	2258.8501
722.89	2254.9500
723.21	2253.3000
723.52	2235.6001
723.84	2222.0500
724.16	2246.3501
724.48	2232.8999
724.80	2233.5500
725.12	2215.7500
725.44	2213.3999
725.76	2205.6499
726.08	2216.3000
726.40	2196.0000
726.72	2200.7000
727.03	2206.9500
727.35	2203.7500
727.67	2177.3000
727.99	2191.3000
728.31	2182.5500
728.63	2179.3501
728.95	2179.8501
729.26	2161.2500
729.58	2155.0000
729.90	2159.0000
730.22	2124.8000
730.54	2127.1001
730.86	2140.2000
731.17	2145.4500
731.49	2121.0000
731.81	2137.6001
732.13	2130.8000
732.45	2099.8501
732.76	2106.6001
733.08	2107.7000
733.40	2102.8999
733.72	2091.0500
734.03	2084.8000
734.35	2091.0500
734.67	2099.3999
734.99	2072.7000
735.30	2081.5500
735.62	2073.2500
735.94	2067.5000
736.26	2052.5500
736.57	2044.3500
736.89	2057.0500
737.21	2027.7000
737.53	2024.4000
737.84	2025.1000
738.16	2002.3000
738.48	2003.5000
738.79	2010.0000
739.11	1989.6000
739.43	1977.2500
739.74	1980.5500
740.06	1964.5000
740.38	1951.4500
740.69	1950.9500
741.01	1941.1500
741.33	1925.8500
741.64	1921.6500
741.96	1914.8000
742.28	1916.0500
742.59	1891.1000
742.91	1890.0500
743.23	1875.4000
743.54	1891.0500
743.86	1868.7000
744.17	1858.4500
744.49	1857.2000
744.81	1850.5500
745.12	1841.2000
745.44	1823.2000
745.75	1823.8500
746.07	1818.8000
746.38	1815.3500
746.70	1805.2000
747.02	1809.2000
747.33	1791.1000
747.65	1789.9500
747.96	1783.2500
748.28	1780.3000
748.59	1770.7000
748.91	1762.3500
749.22	1771.8500
749.54	1761.9000
749.85	1766.1500
750.17	1757.0500
750.48	1743.5500
750.80	1739.7500
751.11	1743.9000
751.43	1738.4500
751.74	1734.5500
752.06	1732.2500
752.37	1723.0000
752.69	1727.7000
753.00	1716.5500
753.32	1719.9000
753.63	1720.6500
753.95	1719.4500
754.26	1698.5500
754.58	1703.4500
754.89	1706.3500
755.20	1702.1500
755.52	1696.8500
755.83	1698.7500
756.15	1691.0000
756.46	1680.8500
756.78	1674.6000
757.09	1676.2000
757.40	1671.9500
757.72	1662.2500
758.03	1661.9000
758.34	1658.4500
758.66	1669.9000
758.97	1662.2000
759.29	1658.2500
759.60	1652.5500
759.91	1640.6000
760.23	1642.6500
760.54	1647.3000
760.85	1640.3500
761.17	1634.8500
761.48	1627.0500
761.79	1611.2500
762.11	1608.0500
762.42	1605.1500
762.73	1617.8500
763.05	1603.5500
763.36	1613.5000
763.67	1612.5000
763.98	1586.7000
764.30	1566.2000
764.61	1580.8500
764.92	1573.4000
765.23	1573.4000
765.55	1560.1500
765.86	1556.1500
766.17	1566.2500
766.48	1555.2500
766.80	1535.0000
767.11	1551.0000
767.42	1517.1000
767.73	1517.0500
768.05	1526.5000
768.36	1528.6500
768.67	1535.6500
768.98	1516.0500
769.29	1532.9500
769.61	1511.9500
769.92	1481.7500
770.23	1488.2500
770.54	1459.5500
770.85	1475.4000
771.17	1474.6500
771.48	1473.4000
771.79	1468.2500
772.10	1453.9000
772.41	1458.5500
772.72	1437.2000
773.03	1427.6000
773.35	1425.8000
773.66	1407.1500
773.97	1409.0500
774.28	1404.1500
774.59	1389.5500
774.90	1397.5500
775.21	1397.8500
775.52	1392.5500
775.83	1384.7500
776.15	1372.2000
776.46	1361.8000
776.77	1352.7000
777.08	1358.3000
777.39	1359.2000
777.70	1346.0000
778.01	1340.8500
778.32	1346.4000
778.63	1342.8500
778.94	1331.5000
779.25	1323.4000
779.56	1315.4000
779.87	1303.5500
780.18	1292.9000
780.49	1287.5000
780.80	1285.2500
781.11	1275.0500
781.42	1269.0000
781.73	1266.3000
782.04	1240.2000
782.35	1237.1500
782.66	1237.0500
782.97	1232.1500
783.28	1239.7500
783.59	1230.2000
783.90	1227.1500
784.21	1213.8500
784.52	1208.9000
784.83	1204.0000
785.14	1196.2500
785.45	1188.3500
785.76	1177.2000
786.06	1181.8500
786.37	1185.8000
786.68	1170.2500
786.99	1165.6500
787.30	1159.7500
787.61	1161.1000
787.92	1148.9000
788.23	1131.4500
788.54	1143.2000
788.84	1134.9000
789.15	1132.3000
789.46	1130.2500
789.77	1111.1000
790.08	1112.6500
790.39	1097.4500
790.70	1111.2000
791.00	1106.5000
791.31	1083.6500
791.62	1087.3500
791.93	1077.1000
792.24	1076.1500
792.54	1067.8000
792.85	1050.5000
793.16	1055.9000
793.47	1047.3000
793.78	1046.7000
794.08	1039.1500
794.39	1032.6500
794.70	1034.5500
795.01	1026.5500
795.31	1020.3000
795.62	1009.1000
795.93	1013.5000
796.24	1015.0500
796.54	1003.7000
796.85	1003.0000
797.16	985.0500
797.47	978.0500
797.77	979.2500
798.08	973.2000
798.39	975.9500
798.69	970.7000
799.00	962.3000
799.31	959.8000
799.62	952.2000
799.92	945.8500
800.23	941.0000
800.54	941.2500
800.84	934.1000
801.15	923.6500
801.46	928.4500
801.76	927.7000
802.07	911.6000
802.37	902.8000
802.68	902.7000
802.99	904.1500
803.29	892.3000
803.60	884.3000
803.91	879.1000
804.21	880.0000
804.52	879.6000
804.82	871.3500
805.13	880.0500
805.44	868.6000
805.74	862.4500
806.05	866.5500
806.35	855.3500
806.66	844.5000
806.96	851.7000
807.27	835.0000
807.57	836.1000
807.88	833.5000
808.19	823.4000
808.49	828.2500
808.80	816.5500
809.10	812.1500
809.41	817.5000
809.71	802.2500
810.02	801.5000
810.32	799.6000
810.63	800.2000
810.93	797.1000
811.24	786.5000
811.54	794.2000
811.85	786.3500
812.15	781.8000
812.45	770.6500
812.76	768.6500
813.06	762.7500
813.37	760.8000
813.67	763.4500
813.98	752.8500
814.28	747.2000
814.58	752.5000
814.89	742.3500
815.19	740.1500
815.50	735.0000
815.80	733.2000
816.11	727.3000
816.41	731.0000
816.71	725.5000
817.02	723.4500
817.32	718.5500
817.62	712.1500
817.93	713.7500
818.23	703.2000
818.53	703.8000
818.84	708.8500
819.14	696.8000
819.44	697.6000
819.75	690.5500
820.05	685.1500
820.35	679.9000
820.66	675.6500
820.96	679.2000
821.26	675.4000
821.57	672.4500
821.87	666.3000
822.17	668.7000
822.48	667.1000
822.78	662.9500
823.08	654.5500
823.38	658.1500
823.69	652.0000
823.99	650.9500
824.29	648.2500
824.59	634.8500
824.90	645.0000
825.20	636.3500
825.50	628.8500
825.80	631.8500
826.10	633.8500
826.41	626.3500
826.71	619.9000
827.01	618.0500
827.31	621.5500
827.61	617.3000
827.92	620.3000
828.22	614.5000
828.52	607.4500
828.82	602.5000
829.12	606.1500
829.42	601.1000
829.73	597.0500
830.03	592.9000
830.33	594.7000
830.63	586.6500
830.93	586.5000
831.23	580.1000
831.53	584.4000
831.83	577.6000
832.14	571.5500
832.44	575.4500
832.74	571.3500
833.04	570.0000
833.34	572.9000
833.64	565.7500
833.94	557.8500
834.24	560.8000
834.54	564.6500
834.84	557.4500
835.14	549.9000
835.44	547.6500
835.74	546.8000
836.04	545.2500
836.34	549.4000
836.64	548.2000
836.95	543.1500
837.25	536.6000
837.55	535.4000
837.85	535.0000
838.15	533.8000
838.45	531.5000
838.74	527.3000
839.04	520.5500
839.34	521.7000
839.64	515.5500
839.94	513.1500
840.24	510.3500
840.54	514.6000
840.84	513.0000
841.14	506.0000
841.44	509.2500
841.74	506.8000
842.04	500.4000
842.34	501.5000
842.64	495.1500
842.94	498.0000
843.24	495.4000
843.53	492.8500
843.83	491.9000
844.13	488.7500
844.43	484.0500
844.73	489.0500
845.03	478.1500
845.33	477.6000
845.63	476.9500
845.92	472.9500
846.22	472.8000
846.52	469.6500
846.82	469.4500
847.12	463.6000
847.42	466.2500
847.71	460.2000
848.01	461.3500
848.31	459.0000
848.61	457.8000
848.91	454.6000
849.20	457.0000
849.50	453.3500
849.80	453.1000
850.10	449.4000
850.39	445.8500
850.69	445.0500
850.99	444.9000
851.29	440.4000
851.59	437.2500
851.88	439.1500
852.18	434.1000
852.48	434.3000
852.77	429.3500
853.07	429.9500
853.37	427.2500
853.67	424.5500
853.96	420.9000
854.26	421.9500
854.56	420.5500
854.85	417.8000
855.15	416.0500
855.45	414.4000
855.74	411.0500
856.04	411.3500
856.34	410.0000
856.63	406.7000
856.93	403.9500
857.23	406.8500
857.52	398.9500
857.82	393.5000
858.11	399.6500
858.41	395.3000
858.71	396.1000
859.00	390.0500
859.30	389.4500
859.59	389.7500
859.89	386.2500
860.19	379.8500
860.48	379.7000
860.78	379.4000
861.07	381.8500
861.37	377.8500
861.66	379.4000
861.96	376.3500
862.26	368.8500
862.55	368.0500
862.85	367.4000
863.14	368.5000
863.44	363.6000
863.73	364.6000
864.03	360.6500
864.32	362.2500
864.62	360.7000
864.91	355.6500
865.21	352.7000
865.50	350.4000
865.80	353.5500
866.09	351.9500
866.39	349.6000
866.68	350.0500
866.97	344.0000
867.27	343.1000
867.56	338.1500
867.86	337.9500
868.15	336.1500
868.45	334.4500
868.74	330.8500
869.03	332.4500
869.33	331.9000
869.62	328.5500
869.92	327.4000
870.21	321.7000
870.50	320.3500
870.80	319.6000
871.09	318.1500
871.39	317.5500
871.68	315.5500
871.97	312.4500
872.27	312.8000
872.56	307.6000
872.85	307.5000
873.15	306.6000
873.44	301.7000
873.73	304.1500
874.03	298.6000
874.32	298.3000
874.61	298.7500
874.90	296.1500
875.20	293.6000
875.49	293.3000
875.78	291.0000
>>>>>End Spectral Data<<<<<
